trial,block,stimId,category,response,accuracy,rt,condition,id,phase
0,0,A150,Alpha,Alpha,TRUE,2245,3,12141,testPhase
1,0,C1050,Gamma,Gamma,TRUE,1465,3,12141,testPhase
2,0,A450,Alpha,Alpha,TRUE,1922,3,12141,testPhase
3,0,A350,Alpha,Alpha,TRUE,1014,3,12141,testPhase
4,0,T1000,test,Gamma,FALSE,976,3,12141,testPhase
5,0,T500,test,Beta,FALSE,789,3,12141,testPhase
6,0,B550,Beta,Beta,TRUE,860,3,12141,testPhase
7,0,A250,Alpha,Alpha,TRUE,912,3,12141,testPhase
8,0,C1150,Gamma,Gamma,TRUE,968,3,12141,testPhase
9,0,C1450,Gamma,Gamma,TRUE,851,3,12141,testPhase
10,0,B850,Beta,Beta,TRUE,1942,3,12141,testPhase
11,0,C1250,Gamma,Gamma,TRUE,1301,3,12141,testPhase
12,0,A50,Alpha,Alpha,TRUE,910,3,12141,testPhase
13,0,B750,Beta,Beta,TRUE,766,3,12141,testPhase
14,0,B950, Beta,Gamma,FALSE,3158,3,12141,testPhase
15,0,B650,Beta,Beta,TRUE,739,3,12141,testPhase
16,0,C1350,Gamma,Gamma,TRUE,1078,3,12141,testPhase
0,0,A150,Alpha,Alpha,TRUE,2452,3,12144,testPhase
1,0,A450,Alpha,Beta,FALSE,2307,3,12144,testPhase
2,0,T1000,test,Beta,FALSE,1858,3,12144,testPhase
3,0,A50,Alpha,Alpha,TRUE,1052,3,12144,testPhase
4,0,B650,Beta,Beta,TRUE,896,3,12144,testPhase
5,0,B550,Beta,Beta,TRUE,983,3,12144,testPhase
6,0,B850,Beta,Gamma,FALSE,978,3,12144,testPhase
7,0,C1450,Gamma,Gamma,TRUE,743,3,12144,testPhase
8,0,C1050,Gamma,Gamma,TRUE,957,3,12144,testPhase
9,0,C1350,Gamma,Gamma,TRUE,901,3,12144,testPhase
10,0,C1250,Gamma,Gamma,TRUE,1058,3,12144,testPhase
11,0,B950, Beta,Gamma,FALSE,2546,3,12144,testPhase
12,0,T500,test,Beta,FALSE,1321,3,12144,testPhase
13,0,A250,Alpha,Alpha,TRUE,1594,3,12144,testPhase
14,0,A350,Alpha,Beta,FALSE,1077,3,12144,testPhase
15,0,C1150,Gamma,Gamma,TRUE,934,3,12144,testPhase
16,0,B750,Beta,Gamma,FALSE,843,3,12144,testPhase
0,0,T1000,test,Beta,FALSE,3566,3,12161,testPhase
1,0,A50,Alpha,Alpha,TRUE,1665,3,12161,testPhase
2,0,A250,Alpha,Alpha,TRUE,6775,3,12161,testPhase
3,0,A350,Alpha,Beta,FALSE,4966,3,12161,testPhase
4,0,B650,Beta,Beta,TRUE,1862,3,12161,testPhase
5,0,B850,Beta,Beta,TRUE,3055,3,12161,testPhase
6,0,T500,test,Beta,FALSE,3848,3,12161,testPhase
7,0,C1350,Gamma,Gamma,TRUE,1656,3,12161,testPhase
8,0,C1150,Gamma,Gamma,TRUE,1410,3,12161,testPhase
9,0,B750,Beta,Beta,TRUE,1785,3,12161,testPhase
10,0,A450,Alpha,Beta,FALSE,4016,3,12161,testPhase
11,0,C1450,Gamma,Gamma,TRUE,2629,3,12161,testPhase
12,0,B550,Beta,Beta,TRUE,1920,3,12161,testPhase
13,0,C1250,Gamma,Gamma,TRUE,3858,3,12161,testPhase
14,0,C1050,Gamma,Gamma,TRUE,5819,3,12161,testPhase
15,0,B950, Beta,Gamma,FALSE,5478,3,12161,testPhase
16,0,A150,Alpha,Alpha,TRUE,1494,3,12161,testPhase
0,0,C1350,Gamma,Gamma,TRUE,2484,3,12183,testPhase
1,0,T1000,test,Beta,FALSE,2833,3,12183,testPhase
2,0,A250,Alpha,Alpha,TRUE,807,3,12183,testPhase
3,0,A50,Alpha,Alpha,TRUE,878,3,12183,testPhase
4,0,A150,Alpha,Alpha,TRUE,882,3,12183,testPhase
5,0,A350,Alpha,Beta,FALSE,778,3,12183,testPhase
6,0,B950,Beta,Beta,TRUE,2111,3,12183,testPhase
7,0,C1250,Gamma,Gamma,TRUE,654,3,12183,testPhase
8,0,B650,Beta,Beta,TRUE,1089,3,12183,testPhase
9,0,C1150,Gamma,Gamma,TRUE,825,3,12183,testPhase
10,0,C1450,Gamma,Gamma,TRUE,1150,3,12183,testPhase
11,0,B850,Beta,Gamma,FALSE,1516,3,12183,testPhase
12,0,B750,Beta,Beta,TRUE,989,3,12183,testPhase
13,0,B550,Beta,Beta,TRUE,1013,3,12183,testPhase
14,0,A450,Alpha,Alpha,TRUE,1510,3,12183,testPhase
15,0,C1050,Gamma,Gamma,TRUE,1117,3,12183,testPhase
16,0,T500,test,Beta,FALSE,973,3,12183,testPhase
0,0,C1350,Gamma,Gamma,TRUE,1484,3,12186,testPhase
1,0,B650,Beta,Beta,TRUE,1489,3,12186,testPhase
2,0,T1000,test,Gamma,FALSE,2822,3,12186,testPhase
3,0,A450,Alpha,Alpha,TRUE,1325,3,12186,testPhase
4,0,B550,Beta,Beta,TRUE,4193,3,12186,testPhase
5,0,C1050,Gamma,Gamma,TRUE,1201,3,12186,testPhase
6,0,A250,Alpha,Alpha,TRUE,1090,3,12186,testPhase
7,0,B950, Beta,Gamma,FALSE,1301,3,12186,testPhase
8,0,B850,Beta,Gamma,FALSE,1581,3,12186,testPhase
9,0,A350,Alpha,Alpha,TRUE,1051,3,12186,testPhase
10,0,C1150,Gamma,Gamma,TRUE,934,3,12186,testPhase
11,0,C1250,Gamma,Gamma,TRUE,1130,3,12186,testPhase
12,0,B750,Beta,Gamma,FALSE,4486,3,12186,testPhase
13,0,A50,Alpha,Alpha,TRUE,1003,3,12186,testPhase
14,0,T500,test,Beta,FALSE,949,3,12186,testPhase
15,0,C1450,Gamma,Gamma,TRUE,856,3,12186,testPhase
16,0,A150,Alpha,Alpha,TRUE,985,3,12186,testPhase
0,0,A50,Alpha,Alpha,TRUE,2651,3,12189,testPhase
1,0,B950, Beta,Gamma,FALSE,11774,3,12189,testPhase
2,0,B750,Beta,Beta,TRUE,1544,3,12189,testPhase
3,0,T500,test,Beta,FALSE,1023,3,12189,testPhase
4,0,A150,Alpha,Alpha,TRUE,1176,3,12189,testPhase
5,0,C1150,Gamma,Gamma,TRUE,1291,3,12189,testPhase
6,0,C1250,Gamma,Gamma,TRUE,1066,3,12189,testPhase
7,0,C1350,Gamma,Gamma,TRUE,913,3,12189,testPhase
8,0,B850,Beta,Gamma,FALSE,32373,3,12189,testPhase
9,0,A350,Alpha,Beta,FALSE,1676,3,12189,testPhase
10,0,C1450,Gamma,Gamma,TRUE,1024,3,12189,testPhase
11,0,C1050,Gamma,Gamma,TRUE,3219,3,12189,testPhase
12,0,B650,Beta,Beta,TRUE,1430,3,12189,testPhase
13,0,T1000,test,Gamma,FALSE,3195,3,12189,testPhase
14,0,A250,Alpha,Alpha,TRUE,2900,3,12189,testPhase
15,0,A450,Alpha,Beta,FALSE,2287,3,12189,testPhase
16,0,B550,Beta,Beta,TRUE,1610,3,12189,testPhase
0,0,C1450,Gamma,Gamma,TRUE,2065,3,12195,testPhase
1,0,B650,Beta,Beta,TRUE,3581,3,12195,testPhase
2,0,T500,test,Beta,FALSE,2598,3,12195,testPhase
3,0,T1000,test,Gamma,FALSE,16488,3,12195,testPhase
4,0,A150,Alpha,Alpha,TRUE,1069,3,12195,testPhase
5,0,B950,Beta,Beta,TRUE,1934,3,12195,testPhase
6,0,A350,Alpha,Alpha,TRUE,1215,3,12195,testPhase
7,0,C1150,Gamma,Gamma,TRUE,1293,3,12195,testPhase
8,0,C1350,Gamma,Gamma,TRUE,1140,3,12195,testPhase
9,0,B850,Beta,Beta,TRUE,2083,3,12195,testPhase
10,0,A50,Alpha,Alpha,TRUE,1210,3,12195,testPhase
11,0,A450,Alpha,Alpha,TRUE,1166,3,12195,testPhase
12,0,B550,Beta,Beta,TRUE,2017,3,12195,testPhase
13,0,A250,Alpha,Alpha,TRUE,1069,3,12195,testPhase
14,0,C1250,Gamma,Gamma,TRUE,1117,3,12195,testPhase
15,0,B750,Beta,Beta,TRUE,1325,3,12195,testPhase
16,0,C1050,Gamma,Gamma,TRUE,1207,3,12195,testPhase
0,0,C1350,Gamma,Gamma,TRUE,2163,3,12198,testPhase
1,0,C1150,Gamma,Gamma,TRUE,1359,3,12198,testPhase
2,0,C1450,Gamma,Gamma,TRUE,1150,3,12198,testPhase
3,0,B850,Beta,Beta,TRUE,1601,3,12198,testPhase
4,0,B750,Beta,Beta,TRUE,1068,3,12198,testPhase
5,0,A350,Alpha,Alpha,TRUE,1400,3,12198,testPhase
6,0,A450,Alpha,Alpha,TRUE,1011,3,12198,testPhase
7,0,C1250,Gamma,Gamma,TRUE,1076,3,12198,testPhase
8,0,T500,test,Beta,FALSE,1122,3,12198,testPhase
9,0,A250,Alpha,Beta,FALSE,1214,3,12198,testPhase
10,0,B950,Beta,Beta,TRUE,1142,3,12198,testPhase
11,0,C1050,Gamma,Gamma,TRUE,1277,3,12198,testPhase
12,0,A50,Alpha,Alpha,TRUE,898,3,12198,testPhase
13,0,T1000,test,Gamma,FALSE,1347,3,12198,testPhase
14,0,A150,Alpha,Alpha,TRUE,1091,3,12198,testPhase
15,0,B550,Beta,Beta,TRUE,1296,3,12198,testPhase
16,0,B650,Beta,Beta,TRUE,950,3,12198,testPhase
0,0,B650,Beta,Beta,TRUE,1845,3,12201,testPhase
1,0,B750,Beta,Beta,TRUE,1214,3,12201,testPhase
2,0,B850,Beta,Beta,TRUE,1692,3,12201,testPhase
3,0,A50,Alpha,Alpha,TRUE,814,3,12201,testPhase
4,0,C1250,Gamma,Gamma,TRUE,1259,3,12201,testPhase
5,0,B550,Beta,Beta,TRUE,694,3,12201,testPhase
6,0,A150,Alpha,Alpha,TRUE,738,3,12201,testPhase
7,0,A250,Alpha,Alpha,TRUE,788,3,12201,testPhase
8,0,C1150,Gamma,Gamma,TRUE,1387,3,12201,testPhase
9,0,T1000,test,Gamma,FALSE,1789,3,12201,testPhase
10,0,T500,test,Beta,FALSE,684,3,12201,testPhase
11,0,B950,Beta,Beta,TRUE,897,3,12201,testPhase
12,0,A450,Alpha,Beta,FALSE,974,3,12201,testPhase
13,0,C1050,Gamma,Gamma,TRUE,4230,3,12201,testPhase
14,0,C1350,Gamma,Gamma,TRUE,887,3,12201,testPhase
15,0,A350,Alpha,Alpha,TRUE,2728,3,12201,testPhase
16,0,C1450,Gamma,Gamma,TRUE,1294,3,12201,testPhase
0,0,B650,Beta,Beta,TRUE,3461,3,12135,testPhase
1,0,C1350,Gamma,Gamma,TRUE,982,3,12135,testPhase
2,0,T1000,test,Gamma,FALSE,2718,3,12135,testPhase
3,0,A250,Alpha,Alpha,TRUE,1033,3,12135,testPhase
4,0,B950, Beta,Gamma,FALSE,2774,3,12135,testPhase
5,0,C1450,Gamma,Gamma,TRUE,1132,3,12135,testPhase
6,0,A450,Alpha,Alpha,TRUE,4070,3,12135,testPhase
7,0,T500,test,Beta,FALSE,2206,3,12135,testPhase
8,0,C1250,Gamma,Gamma,TRUE,1150,3,12135,testPhase
9,0,A50,Alpha,Alpha,TRUE,1028,3,12135,testPhase
10,0,C1050,Gamma,Gamma,TRUE,1182,3,12135,testPhase
11,0,B850,Beta,Beta,TRUE,3973,3,12135,testPhase
12,0,C1150,Gamma,Gamma,TRUE,854,3,12135,testPhase
13,0,B750,Beta,Beta,TRUE,2574,3,12135,testPhase
14,0,B550,Beta,Beta,TRUE,2413,3,12135,testPhase
15,0,A350,Alpha,Alpha,TRUE,953,3,12135,testPhase
16,0,A150,Alpha,Alpha,TRUE,941,3,12135,testPhase
0,0,A50,Alpha,Alpha,TRUE,1150,3,12217,testPhase
1,0,C1250,Gamma,Gamma,TRUE,2356,3,12217,testPhase
2,0,C1350,Gamma,Gamma,TRUE,850,3,12217,testPhase
3,0,A250,Alpha,Alpha,TRUE,1178,3,12217,testPhase
4,0,T500,test,Beta,FALSE,578,3,12217,testPhase
5,0,B850,Beta,Gamma,FALSE,1637,3,12217,testPhase
6,0,C1050,Gamma,Gamma,TRUE,880,3,12217,testPhase
7,0,C1150,Gamma,Gamma,TRUE,683,3,12217,testPhase
8,0,T1000,test,Gamma,FALSE,559,3,12217,testPhase
9,0,A350,Alpha,Beta,FALSE,845,3,12217,testPhase
10,0,A450,Alpha,Beta,FALSE,718,3,12217,testPhase
11,0,B550,Beta,Beta,TRUE,637,3,12217,testPhase
12,0,A150,Alpha,Alpha,TRUE,822,3,12217,testPhase
13,0,B950, Beta,Gamma,FALSE,1302,3,12217,testPhase
14,0,C1450,Gamma,Gamma,TRUE,644,3,12217,testPhase
15,0,B750,Beta,Beta,TRUE,2493,3,12217,testPhase
16,0,B650,Beta,Beta,TRUE,833,3,12217,testPhase
0,0,C1250,Gamma,Gamma,TRUE,1443,3,12220,testPhase
1,0,B550,Beta,Beta,TRUE,1692,3,12220,testPhase
2,0,A150,Alpha,Alpha,TRUE,1443,3,12220,testPhase
3,0,B950,Beta,Beta,TRUE,3477,3,12220,testPhase
4,0,C1450,Gamma,Gamma,TRUE,1154,3,12220,testPhase
5,0,B850,Beta,Beta,TRUE,2262,3,12220,testPhase
6,0,C1350,Gamma,Gamma,TRUE,884,3,12220,testPhase
7,0,A250,Alpha,Alpha,TRUE,1029,3,12220,testPhase
8,0,T500,test,Beta,FALSE,1298,3,12220,testPhase
9,0,B750,Beta,Beta,TRUE,1145,3,12220,testPhase
10,0,A350,Alpha,Alpha,TRUE,1169,3,12220,testPhase
11,0,A450,Alpha,Beta,FALSE,2109,3,12220,testPhase
12,0,T1000,test,Beta,FALSE,1444,3,12220,testPhase
13,0,C1050,Gamma,Gamma,TRUE,2533,3,12220,testPhase
14,0,C1150,Gamma,Gamma,TRUE,982,3,12220,testPhase
15,0,A50,Alpha,Alpha,TRUE,1013,3,12220,testPhase
16,0,B650,Beta,Beta,TRUE,1470,3,12220,testPhase
0,0,T1000,test,Beta,FALSE,2755,3,12223,testPhase
1,0,B750,Beta,Beta,TRUE,2576,3,12223,testPhase
2,0,T500,test,Alpha,FALSE,1117,3,12223,testPhase
3,0,A250,Alpha,Alpha,TRUE,862,3,12223,testPhase
4,0,C1350,Gamma,Gamma,TRUE,814,3,12223,testPhase
5,0,B850,Beta,Gamma,FALSE,837,3,12223,testPhase
6,0,A150,Alpha,Alpha,TRUE,1103,3,12223,testPhase
7,0,C1450,Gamma,Gamma,TRUE,818,3,12223,testPhase
8,0,A450,Alpha,Beta,FALSE,821,3,12223,testPhase
9,0,B550,Beta,Beta,TRUE,881,3,12223,testPhase
10,0,B950, Beta,Gamma,FALSE,1029,3,12223,testPhase
11,0,C1150,Gamma,Gamma,TRUE,742,3,12223,testPhase
12,0,C1050,Gamma,Gamma,TRUE,635,3,12223,testPhase
13,0,A350,Alpha,Alpha,TRUE,2229,3,12223,testPhase
14,0,B650,Beta,Beta,TRUE,666,3,12223,testPhase
15,0,C1250,Gamma,Gamma,TRUE,742,3,12223,testPhase
16,0,A50,Alpha,Alpha,TRUE,845,3,12223,testPhase
0,0,C1250,Gamma,Gamma,TRUE,2450,3,12226,testPhase
1,0,A450,Alpha,Alpha,TRUE,1773,3,12226,testPhase
2,0,T500,test,Beta,FALSE,1188,3,12226,testPhase
3,0,B750,Beta,Gamma,FALSE,1910,3,12226,testPhase
4,0,A150,Alpha,Alpha,TRUE,990,3,12226,testPhase
5,0,B950, Beta,Gamma,FALSE,1110,3,12226,testPhase
6,0,A250,Alpha,Alpha,TRUE,1413,3,12226,testPhase
7,0,C1050,Gamma,Gamma,TRUE,1062,3,12226,testPhase
8,0,T1000,test,Gamma,FALSE,1030,3,12226,testPhase
9,0,B650,Beta,Beta,TRUE,966,3,12226,testPhase
10,0,C1150,Gamma,Gamma,TRUE,756,3,12226,testPhase
11,0,B550,Beta,Beta,TRUE,718,3,12226,testPhase
12,0,A50,Alpha,Alpha,TRUE,1150,3,12226,testPhase
13,0,C1450,Gamma,Gamma,TRUE,829,3,12226,testPhase
14,0,C1350,Gamma,Gamma,TRUE,853,3,12226,testPhase
15,0,A350,Alpha,Alpha,TRUE,2035,3,12226,testPhase
16,0,B850,Beta,Beta,TRUE,837,3,12226,testPhase
0,0,C1350,Gamma,Gamma,TRUE,2735,3,12229,testPhase
1,0,B650,Beta,Beta,TRUE,3894,3,12229,testPhase
2,0,C1250,Gamma,Gamma,TRUE,1807,3,12229,testPhase
3,0,B750,Beta,Beta,TRUE,2068,3,12229,testPhase
4,0,C1450,Gamma,Gamma,TRUE,948,3,12229,testPhase
5,0,B550,Beta,Alpha,FALSE,3947,3,12229,testPhase
6,0,T500,test,Alpha,FALSE,970,3,12229,testPhase
7,0,B950,Beta,Beta,TRUE,1165,3,12229,testPhase
8,0,A50,Alpha,Alpha,TRUE,1138,3,12229,testPhase
9,0,A350,Alpha,Alpha,TRUE,1047,3,12229,testPhase
10,0,A450,Alpha,Alpha,TRUE,1050,3,12229,testPhase
11,0,A150,Alpha,Alpha,TRUE,940,3,12229,testPhase
12,0,C1050,Gamma,Beta,FALSE,1590,3,12229,testPhase
13,0,T1000,test,Beta,FALSE,901,3,12229,testPhase
14,0,C1150,Gamma,Gamma,TRUE,3291,3,12229,testPhase
15,0,A250,Alpha,Alpha,TRUE,1485,3,12229,testPhase
16,0,B850,Beta,Beta,TRUE,2060,3,12229,testPhase
0,0,B650,Beta,Beta,TRUE,4094,3,12251,testPhase
1,0,B550,Beta,Beta,TRUE,779,3,12251,testPhase
2,0,B850,Beta,Gamma,FALSE,1053,3,12251,testPhase
3,0,A450,Alpha,Beta,FALSE,781,3,12251,testPhase
4,0,A50,Alpha,Alpha,TRUE,1069,3,12251,testPhase
5,0,C1050,Gamma,Gamma,TRUE,1246,3,12251,testPhase
6,0,C1450,Gamma,Gamma,TRUE,653,3,12251,testPhase
7,0,T500,test,Beta,FALSE,958,3,12251,testPhase
8,0,C1150,Gamma,Gamma,TRUE,1533,3,12251,testPhase
9,0,T1000,test,Gamma,FALSE,753,3,12251,testPhase
10,0,C1250,Gamma,Gamma,TRUE,1511,3,12251,testPhase
11,0,A350,Alpha,Alpha,TRUE,1717,3,12251,testPhase
12,0,B950,Beta,Beta,TRUE,709,3,12251,testPhase
13,0,A150,Alpha,Alpha,TRUE,1134,3,12251,testPhase
14,0,B750,Beta,Beta,TRUE,830,3,12251,testPhase
15,0,A250,Alpha,Beta,FALSE,806,3,12251,testPhase
16,0,C1350,Gamma,Gamma,TRUE,1246,3,12251,testPhase
0,0,C1050,Gamma,Gamma,TRUE,2085,3,12254,testPhase
1,0,B650,Beta,Beta,TRUE,2398,3,12254,testPhase
2,0,C1250,Gamma,Gamma,TRUE,1261,3,12254,testPhase
3,0,B850,Beta,Gamma,FALSE,1576,3,12254,testPhase
4,0,T1000,test,Gamma,FALSE,2461,3,12254,testPhase
5,0,B550,Beta,Beta,TRUE,974,3,12254,testPhase
6,0,A450,Alpha,Beta,FALSE,1013,3,12254,testPhase
7,0,T500,test,Beta,FALSE,2568,3,12254,testPhase
8,0,B950, Beta,Gamma,FALSE,1031,3,12254,testPhase
9,0,B750,Beta,Gamma,FALSE,1647,3,12254,testPhase
10,0,C1150,Gamma,Gamma,TRUE,1092,3,12254,testPhase
11,0,A50,Alpha,Alpha,TRUE,965,3,12254,testPhase
12,0,A250,Alpha,Alpha,TRUE,889,3,12254,testPhase
13,0,A350,Alpha,Alpha,TRUE,1240,3,12254,testPhase
14,0,C1450,Gamma,Gamma,TRUE,841,3,12254,testPhase
15,0,C1350,Gamma,Gamma,TRUE,945,3,12254,testPhase
16,0,A150,Alpha,Alpha,TRUE,932,3,12254,testPhase
0,0,C1450,Gamma,Gamma,TRUE,1950,3,12257,testPhase
1,0,A50,Alpha,Alpha,TRUE,1315,3,12257,testPhase
2,0,C1150,Gamma,Beta,FALSE,1897,3,12257,testPhase
3,0,B650,Beta,Beta,TRUE,1239,3,12257,testPhase
4,0,C1350,Gamma,Gamma,TRUE,1212,3,12257,testPhase
5,0,T1000,test,Beta,FALSE,1429,3,12257,testPhase
6,0,B550,Beta,Alpha,FALSE,2799,3,12257,testPhase
7,0,A150,Alpha,Alpha,TRUE,1190,3,12257,testPhase
8,0,A250,Alpha,Alpha,TRUE,1010,3,12257,testPhase
9,0,B750,Beta,Beta,TRUE,901,3,12257,testPhase
10,0,C1250,Gamma,Gamma,TRUE,1594,3,12257,testPhase
11,0,C1050,Gamma,Gamma,TRUE,4199,3,12257,testPhase
12,0,B850,Beta,Beta,TRUE,1625,3,12257,testPhase
13,0,B950,Beta,Beta,TRUE,2463,3,12257,testPhase
14,0,T500,test,Beta,FALSE,1080,3,12257,testPhase
15,0,A350,Alpha,Alpha,TRUE,1744,3,12257,testPhase
16,0,A450,Alpha,Alpha,TRUE,1229,3,12257,testPhase
0,0,B750,Beta,Beta,TRUE,3087,3,12274,testPhase
1,0,B650,Beta,Beta,TRUE,1693,3,12274,testPhase
2,0,C1250,Gamma,Gamma,TRUE,927,3,12274,testPhase
3,0,B850,Beta,Gamma,FALSE,4084,3,12274,testPhase
4,0,B550,Beta,Beta,TRUE,893,3,12274,testPhase
5,0,T500,test,Beta,FALSE,2924,3,12274,testPhase
6,0,C1450,Gamma,Gamma,TRUE,974,3,12274,testPhase
7,0,C1150,Gamma,Gamma,TRUE,1894,3,12274,testPhase
8,0,A250,Alpha,Alpha,TRUE,824,3,12274,testPhase
9,0,A150,Alpha,Alpha,TRUE,911,3,12274,testPhase
10,0,C1350,Gamma,Gamma,TRUE,761,3,12274,testPhase
11,0,B950, Beta,Gamma,FALSE,2925,3,12274,testPhase
12,0,A350,Alpha,Beta,FALSE,1493,3,12274,testPhase
13,0,A450,Alpha,Beta,FALSE,941,3,12274,testPhase
14,0,A50,Alpha,Alpha,TRUE,977,3,12274,testPhase
15,0,C1050,Gamma,Gamma,TRUE,2116,3,12274,testPhase
16,0,T1000,test,Gamma,FALSE,1054,3,12274,testPhase
0,0,B550,Beta,Beta,TRUE,3414,3,12277,testPhase
1,0,A50,Alpha,Alpha,TRUE,1302,3,12277,testPhase
2,0,B850,Beta,Gamma,FALSE,1510,3,12277,testPhase
3,0,T1000,test,Gamma,FALSE,838,3,12277,testPhase
4,0,C1050,Gamma,Gamma,TRUE,932,3,12277,testPhase
5,0,B950, Beta,Gamma,FALSE,802,3,12277,testPhase
6,0,A450,Alpha,Beta,FALSE,817,3,12277,testPhase
7,0,A350,Alpha,Alpha,TRUE,782,3,12277,testPhase
8,0,C1350,Gamma,Gamma,TRUE,758,3,12277,testPhase
9,0,B750,Beta,Beta,TRUE,5749,3,12277,testPhase
10,0,A250,Alpha,Alpha,TRUE,806,3,12277,testPhase
11,0,A150,Alpha,Alpha,TRUE,701,3,12277,testPhase
12,0,C1450,Gamma,Gamma,TRUE,926,3,12277,testPhase
13,0,C1250,Gamma,Gamma,TRUE,806,3,12277,testPhase
14,0,B650,Beta,Beta,TRUE,1291,3,12277,testPhase
15,0,T500,test,Beta,FALSE,1627,3,12277,testPhase
16,0,C1150,Gamma,Gamma,TRUE,766,3,12277,testPhase
0,0,C1350,Gamma,Gamma,TRUE,2571,3,12138,testPhase
1,0,A50,Alpha,Alpha,TRUE,1165,3,12138,testPhase
2,0,A150,Alpha,Alpha,TRUE,1663,3,12138,testPhase
3,0,C1450,Gamma,Gamma,TRUE,1184,3,12138,testPhase
4,0,A250,Alpha,Alpha,TRUE,1277,3,12138,testPhase
5,0,B550,Beta,Beta,TRUE,742,3,12138,testPhase
6,0,C1150,Gamma,Gamma,TRUE,1232,3,12138,testPhase
7,0,A350,Alpha,Beta,FALSE,918,3,12138,testPhase
8,0,C1050,Gamma,Gamma,TRUE,2213,3,12138,testPhase
9,0,B650,Beta,Beta,TRUE,763,3,12138,testPhase
10,0,B850,Beta,Beta,TRUE,1060,3,12138,testPhase
11,0,B750,Beta,Beta,TRUE,859,3,12138,testPhase
12,0,T1000,test,Gamma,FALSE,1573,3,12138,testPhase
13,0,C1250,Gamma,Gamma,TRUE,816,3,12138,testPhase
14,0,A450,Alpha,Beta,FALSE,1710,3,12138,testPhase
15,0,T500,test,Beta,FALSE,783,3,12138,testPhase
16,0,B950,Beta,Beta,TRUE,2272,3,12138,testPhase
0,0,C1450,Gamma,Gamma,TRUE,2843,3,12280,testPhase
1,0,A350,Alpha,Alpha,TRUE,1861,3,12280,testPhase
2,0,T500,test,Beta,FALSE,2559,3,12280,testPhase
3,0,B750,Beta,Gamma,FALSE,1197,3,12280,testPhase
4,0,T1000,test,Gamma,FALSE,1005,3,12280,testPhase
5,0,A150,Alpha,Alpha,TRUE,933,3,12280,testPhase
6,0,B950, Beta,Gamma,FALSE,1726,3,12280,testPhase
7,0,B850,Beta,Beta,TRUE,5140,3,12280,testPhase
8,0,A450,Alpha,Alpha,TRUE,1077,3,12280,testPhase
9,0,A50,Alpha,Alpha,TRUE,853,3,12280,testPhase
10,0,C1250,Gamma,Gamma,TRUE,981,3,12280,testPhase
11,0,C1050,Gamma,Gamma,TRUE,822,3,12280,testPhase
12,0,A250,Alpha,Alpha,TRUE,1486,3,12280,testPhase
13,0,C1350,Gamma,Gamma,TRUE,941,3,12280,testPhase
14,0,B550,Beta,Gamma,FALSE,5237,3,12280,testPhase
15,0,C1150,Gamma,Gamma,TRUE,831,3,12280,testPhase
16,0,B650,Beta,Beta,TRUE,5119,3,12280,testPhase
0,0,B750,Beta,Beta,TRUE,3762,3,12282,testPhase
1,0,A250,Alpha,Alpha,TRUE,1125,3,12282,testPhase
2,0,B950, Beta,Gamma,FALSE,3246,3,12282,testPhase
3,0,T500,test,Beta,FALSE,1030,3,12282,testPhase
4,0,A150,Alpha,Alpha,TRUE,782,3,12282,testPhase
5,0,A50,Alpha,Alpha,TRUE,741,3,12282,testPhase
6,0,B850,Beta,Beta,TRUE,1589,3,12282,testPhase
7,0,C1250,Gamma,Gamma,TRUE,709,3,12282,testPhase
8,0,C1050,Gamma,Gamma,TRUE,593,3,12282,testPhase
9,0,A350,Alpha,Beta,FALSE,1005,3,12282,testPhase
10,0,C1450,Gamma,Gamma,TRUE,1268,3,12282,testPhase
11,0,B650,Beta,Beta,TRUE,798,3,12282,testPhase
12,0,C1350,Gamma,Gamma,TRUE,734,3,12282,testPhase
13,0,A450,Alpha,Beta,FALSE,1082,3,12282,testPhase
14,0,C1150,Gamma,Gamma,TRUE,700,3,12282,testPhase
15,0,T1000,test,Gamma,FALSE,908,3,12282,testPhase
16,0,B550,Beta,Beta,TRUE,749,3,12282,testPhase
0,0,C1250,Gamma,Gamma,TRUE,3196,3,12285,testPhase
1,0,A350,Alpha,Alpha,TRUE,1189,3,12285,testPhase
2,0,A450,Alpha,Alpha,TRUE,1343,3,12285,testPhase
3,0,A250,Alpha,Alpha,TRUE,835,3,12285,testPhase
4,0,B950, Beta,Gamma,FALSE,2302,3,12285,testPhase
5,0,B750,Beta,Beta,TRUE,1318,3,12285,testPhase
6,0,A50,Alpha,Alpha,TRUE,792,3,12285,testPhase
7,0,T1000,test,Gamma,FALSE,1797,3,12285,testPhase
8,0,B650,Beta,Beta,TRUE,1446,3,12285,testPhase
9,0,B550,Beta,Alpha,FALSE,1289,3,12285,testPhase
10,0,C1150,Gamma,Gamma,TRUE,1037,3,12285,testPhase
11,0,C1450,Gamma,Gamma,TRUE,1023,3,12285,testPhase
12,0,C1050,Gamma,Gamma,TRUE,1754,3,12285,testPhase
13,0,B850,Beta,Gamma,FALSE,1348,3,12285,testPhase
14,0,T500,test,Beta,FALSE,4022,3,12285,testPhase
15,0,C1350,Gamma,Gamma,TRUE,1093,3,12285,testPhase
16,0,A150,Alpha,Alpha,TRUE,925,3,12285,testPhase
0,0,A450,Alpha,Beta,FALSE,2134,3,12288,testPhase
1,0,C1050,Gamma,Beta,FALSE,5410,3,12288,testPhase
2,0,B950,Beta,Beta,TRUE,1862,3,12288,testPhase
3,0,T1000,test,Gamma,FALSE,1626,3,12288,testPhase
4,0,B850,Beta,Beta,TRUE,1528,3,12288,testPhase
5,0,C1450,Gamma,Gamma,TRUE,940,3,12288,testPhase
6,0,A50,Alpha,Alpha,TRUE,1600,3,12288,testPhase
7,0,A250,Alpha,Beta,FALSE,975,3,12288,testPhase
8,0,A350,Alpha,Beta,FALSE,1544,3,12288,testPhase
9,0,B650,Beta,Beta,TRUE,1954,3,12288,testPhase
10,0,B550,Beta,Beta,TRUE,598,3,12288,testPhase
11,0,B750,Beta,Beta,TRUE,1489,3,12288,testPhase
12,0,C1350,Gamma,Gamma,TRUE,797,3,12288,testPhase
13,0,T500,test,Beta,FALSE,1498,3,12288,testPhase
14,0,C1250,Gamma,Gamma,TRUE,1492,3,12288,testPhase
15,0,C1150,Gamma,Gamma,TRUE,936,3,12288,testPhase
16,0,A150,Alpha,Alpha,TRUE,1052,3,12288,testPhase
0,0,C1250,Gamma,Gamma,TRUE,1957,3,12291,testPhase
1,0,A50,Alpha,Alpha,TRUE,1092,3,12291,testPhase
2,0,B850,Beta,Gamma,FALSE,1594,3,12291,testPhase
3,0,A150,Alpha,Alpha,TRUE,1182,3,12291,testPhase
4,0,B950, Beta,Gamma,FALSE,1220,3,12291,testPhase
5,0,A350,Alpha,Beta,FALSE,860,3,12291,testPhase
6,0,A450,Alpha,Beta,FALSE,794,3,12291,testPhase
7,0,C1150,Gamma,Gamma,TRUE,1056,3,12291,testPhase
8,0,C1350,Gamma,Gamma,TRUE,854,3,12291,testPhase
9,0,T1000,test,Gamma,FALSE,1103,3,12291,testPhase
10,0,B750,Beta,Gamma,FALSE,1446,3,12291,testPhase
11,0,A250,Alpha,Beta,FALSE,1186,3,12291,testPhase
12,0,B650,Beta,Beta,TRUE,3733,3,12291,testPhase
13,0,T500,test,Beta,FALSE,757,3,12291,testPhase
14,0,C1050,Gamma,Gamma,TRUE,950,3,12291,testPhase
15,0,C1450,Gamma,Gamma,TRUE,895,3,12291,testPhase
16,0,B550,Beta,Beta,TRUE,966,3,12291,testPhase
0,0,C1450,Gamma,Gamma,TRUE,1725,3,12312,testPhase
1,0,B550,Beta,Beta,TRUE,1387,3,12312,testPhase
2,0,A150,Alpha,Alpha,TRUE,799,3,12312,testPhase
3,0,C1350,Gamma,Gamma,TRUE,965,3,12312,testPhase
4,0,C1050,Gamma,Gamma,TRUE,2278,3,12312,testPhase
5,0,A450,Alpha,Beta,FALSE,1159,3,12312,testPhase
6,0,T500,test,Beta,FALSE,677,3,12312,testPhase
7,0,B950,Beta,Beta,TRUE,997,3,12312,testPhase
8,0,A350,Alpha,Alpha,TRUE,1512,3,12312,testPhase
9,0,B850,Beta,Beta,TRUE,1613,3,12312,testPhase
10,0,T1000,test,Gamma,FALSE,1016,3,12312,testPhase
11,0,A250,Alpha,Alpha,TRUE,1174,3,12312,testPhase
12,0,B650,Beta,Beta,TRUE,837,3,12312,testPhase
13,0,A50,Alpha,Alpha,TRUE,836,3,12312,testPhase
14,0,C1250,Gamma,Gamma,TRUE,1325,3,12312,testPhase
15,0,B750,Beta,Gamma,FALSE,2899,3,12312,testPhase
16,0,C1150,Gamma,Gamma,TRUE,701,3,12312,testPhase
0,0,A250,Alpha,Alpha,TRUE,4916,3,12316,testPhase
1,0,B550,Beta,Beta,TRUE,3263,3,12316,testPhase
2,0,B750,Beta,Beta,TRUE,1156,3,12316,testPhase
3,0,C1350,Gamma,Gamma,TRUE,1094,3,12316,testPhase
4,0,A350,Alpha,Alpha,TRUE,2174,3,12316,testPhase
5,0,A150,Alpha,Alpha,TRUE,1246,3,12316,testPhase
6,0,C1450,Gamma,Gamma,TRUE,1173,3,12316,testPhase
7,0,T1000,test,Gamma,FALSE,2445,3,12316,testPhase
8,0,B650,Beta,Beta,TRUE,1173,3,12316,testPhase
9,0,C1150,Gamma,Gamma,TRUE,1232,3,12316,testPhase
10,0,B850,Beta,Beta,TRUE,1463,3,12316,testPhase
11,0,C1250,Gamma,Gamma,TRUE,989,3,12316,testPhase
12,0,C1050,Gamma,Gamma,TRUE,6022,3,12316,testPhase
13,0,B950,Beta,Beta,TRUE,2605,3,12316,testPhase
14,0,A50,Alpha,Alpha,TRUE,2131,3,12316,testPhase
15,0,A450,Alpha,Beta,FALSE,1325,3,12316,testPhase
16,0,T500,test,Beta,FALSE,2541,3,12316,testPhase
0,0,C1150,Gamma,Gamma,TRUE,2212,3,12319,testPhase
1,0,A250,Alpha,Alpha,TRUE,1743,3,12319,testPhase
2,0,T500,test,Beta,FALSE,1975,3,12319,testPhase
3,0,B750,Beta,Beta,TRUE,1204,3,12319,testPhase
4,0,T1000,test,Gamma,FALSE,866,3,12319,testPhase
5,0,A150,Alpha,Alpha,TRUE,1104,3,12319,testPhase
6,0,C1050,Gamma,Gamma,TRUE,1255,3,12319,testPhase
7,0,A350,Alpha,Alpha,TRUE,1401,3,12319,testPhase
8,0,C1350,Gamma,Gamma,TRUE,943,3,12319,testPhase
9,0,A450,Alpha,Alpha,TRUE,1032,3,12319,testPhase
10,0,C1250,Gamma,Gamma,TRUE,848,3,12319,testPhase
11,0,A50,Alpha,Alpha,TRUE,906,3,12319,testPhase
12,0,B550,Beta,Beta,TRUE,686,3,12319,testPhase
13,0,B850,Beta,Beta,TRUE,933,3,12319,testPhase
14,0,B650,Beta,Beta,TRUE,713,3,12319,testPhase
15,0,B950,Beta,Beta,TRUE,2164,3,12319,testPhase
16,0,C1450,Gamma,Gamma,TRUE,705,3,12319,testPhase
0,0,B950, Beta,Gamma,FALSE,2352,3,12322,testPhase
1,0,A250,Alpha,Alpha,TRUE,1321,3,12322,testPhase
2,0,A450,Alpha,Beta,FALSE,2582,3,12322,testPhase
3,0,B750,Beta,Gamma,FALSE,2662,3,12322,testPhase
4,0,B550,Beta,Beta,TRUE,1893,3,12322,testPhase
5,0,A50,Alpha,Alpha,TRUE,860,3,12322,testPhase
6,0,A150,Alpha,Alpha,TRUE,1805,3,12322,testPhase
7,0,T1000,test,Gamma,FALSE,3294,3,12322,testPhase
8,0,A350,Alpha,Beta,FALSE,15645,3,12322,testPhase
9,0,C1350,Gamma,Gamma,TRUE,977,3,12322,testPhase
10,0,C1150,Gamma,Gamma,TRUE,1085,3,12322,testPhase
11,0,B850,Beta,Beta,TRUE,6790,3,12322,testPhase
12,0,C1250,Gamma,Gamma,TRUE,913,3,12322,testPhase
13,0,C1450,Gamma,Gamma,TRUE,903,3,12322,testPhase
14,0,T500,test,Beta,FALSE,1570,3,12322,testPhase
15,0,C1050,Gamma,Gamma,TRUE,880,3,12322,testPhase
16,0,B650,Beta,Beta,TRUE,1335,3,12322,testPhase
