trial,block,stimId1,stimID2,category1,category2,response,rt,condition,id,phase
1,0,C1450,A450,Alpha,Alpha,0.0,4779,3,12141,similarity
2,0,C1450,A350,Gamma,Alpha,0.0,1846,3,12141,similarity
3,0,C1450,B850,Gamma,Beta,2.0,2938,3,12141,similarity
4,0,C1450,C1250,Gamma,Gamma,5.0,2162,3,12141,similarity
5,0,C1450,C1050,Gamma,Gamma,4.0,2122,3,12141,similarity
6,0,C1450,C1350,Gamma,Gamma,6.0,2234,3,12141,similarity
7,0,C1450,B550,Gamma,Beta,0.9999999999999998,2570,3,12141,similarity
8,0,C1450,B750,Gamma,Beta,2.0,1994,3,12141,similarity
9,0,C1450,C1150,Gamma,Gamma,5.0,2363,3,12141,similarity
10,0,C1450,B950,Gamma, Beta,3.0,2147,3,12141,similarity
11,0,C1450,A50,Gamma,Alpha,0.0,1834,3,12141,similarity
12,0,C1450,A150,Gamma,Alpha,0.0,1914,3,12141,similarity
13,0,C1450,B650,Gamma,Beta,0.9999999999999998,2290,3,12141,similarity
14,0,C1450,A250,Gamma,Alpha,0.9999999999999998,1802,3,12141,similarity
2,1,A450,A350,Alpha,Alpha,5.0,2691,3,12141,similarity
3,1,A450,B850,Alpha,Beta,2.0,2491,3,12141,similarity
4,1,A450,C1250,Alpha,Gamma,0.9999999999999998,2569,3,12141,similarity
5,1,A450,C1050,Alpha,Gamma,0.9999999999999998,2362,3,12141,similarity
6,1,A450,C1350,Alpha,Gamma,0.0,2057,3,12141,similarity
7,1,A450,B550,Alpha,Beta,6.0,2171,3,12141,similarity
8,1,A450,B750,Alpha,Beta,5.0,1979,3,12141,similarity
9,1,A450,C1150,Alpha,Gamma,2.0,2188,3,12141,similarity
10,1,A450,B950,Alpha, Beta,2.0,1547,3,12141,similarity
11,1,A450,A50,Alpha,Alpha,2.0,2699,3,12141,similarity
12,1,A450,A150,Alpha,Alpha,3.0,2043,3,12141,similarity
13,1,A450,B650,Alpha,Beta,4.0,1867,3,12141,similarity
14,1,A450,A250,Alpha,Alpha,5.0,2179,3,12141,similarity
3,2,A350,B850,Alpha,Beta,2.0,1611,3,12141,similarity
4,2,A350,C1250,Alpha,Gamma,0.9999999999999998,2363,3,12141,similarity
5,2,A350,C1050,Alpha,Gamma,0.9999999999999998,1675,3,12141,similarity
6,2,A350,C1350,Alpha,Gamma,0.0,2665,3,12141,similarity
7,2,A350,B550,Alpha,Beta,5.0,2227,3,12141,similarity
8,2,A350,B750,Alpha,Beta,3.0,1627,3,12141,similarity
9,2,A350,C1150,Alpha,Gamma,0.9999999999999998,2331,3,12141,similarity
10,2,A350,B950,Alpha, Beta,0.9999999999999998,1193,3,12141,similarity
11,2,A350,A50,Alpha,Alpha,2.0,2178,3,12141,similarity
12,2,A350,A150,Alpha,Alpha,3.0,2834,3,12141,similarity
13,2,A350,B650,Alpha,Beta,4.0,1802,3,12141,similarity
14,2,A350,A250,Alpha,Alpha,5.0,2074,3,12141,similarity
4,3,B850,C1250,Beta,Gamma,4.0,2177,3,12141,similarity
5,3,B850,C1050,Beta,Gamma,5.0,1755,3,12141,similarity
6,3,B850,C1350,Beta,Gamma,2.0,1898,3,12141,similarity
7,3,B850,B550,Beta,Beta,3.0,1306,3,12141,similarity
8,3,B850,B750,Beta,Beta,6.0,1906,3,12141,similarity
9,3,B850,C1150,Beta,Gamma,5.0,2331,3,12141,similarity
10,3,B850,B950,Beta, Beta,6.0,1666,3,12141,similarity
11,3,B850,A50,Beta,Alpha,0.0,2108,3,12141,similarity
12,3,B850,A150,Beta,Alpha,0.9999999999999998,1944,3,12141,similarity
13,3,B850,B650,Beta,Beta,5.0,1844,3,12141,similarity
14,3,B850,A250,Beta,Alpha,2.0,1747,3,12141,similarity
5,4,C1250,C1050,Gamma,Gamma,6.0,1787,3,12141,similarity
6,4,C1250,C1350,Gamma,Gamma,6.0,1338,3,12141,similarity
7,4,C1250,B550,Gamma,Beta,3.0,2255,3,12141,similarity
8,4,C1250,B750,Gamma,Beta,3.0,1563,3,12141,similarity
9,4,C1250,C1150,Gamma,Gamma,6.0,3923,3,12141,similarity
10,4,C1250,B950,Gamma, Beta,5.0,2283,3,12141,similarity
11,4,C1250,A50,Gamma,Alpha,0.0,1715,3,12141,similarity
12,4,C1250,A150,Gamma,Alpha,0.0,1804,3,12141,similarity
13,4,C1250,B650,Gamma,Beta,2.0,1587,3,12141,similarity
14,4,C1250,A250,Gamma,Alpha,0.9999999999999998,1832,3,12141,similarity
6,5,C1050,C1350,Gamma,Gamma,3.0,1562,3,12141,similarity
7,5,C1050,B550,Gamma,Beta,4.0,1603,3,12141,similarity
8,5,C1050,B750,Gamma,Beta,4.0,1170,3,12141,similarity
9,5,C1050,C1150,Gamma,Gamma,5.0,1348,3,12141,similarity
10,5,C1050,B950,Gamma, Beta,5.0,1148,3,12141,similarity
11,5,C1050,A50,Gamma,Alpha,0.0,1867,3,12141,similarity
12,5,C1050,A150,Gamma,Alpha,0.9999999999999998,1586,3,12141,similarity
13,5,C1050,B650,Gamma,Beta,2.0,1692,3,12141,similarity
14,5,C1050,A250,Gamma,Alpha,0.9999999999999998,1459,3,12141,similarity
7,6,C1350,B550,Gamma,Beta,0.9999999999999998,1906,3,12141,similarity
8,6,C1350,B750,Gamma,Beta,2.0,1498,3,12141,similarity
9,6,C1350,C1150,Gamma,Gamma,5.0,1867,3,12141,similarity
10,6,C1350,B950,Gamma, Beta,4.0,1538,3,12141,similarity
11,6,C1350,A50,Gamma,Alpha,0.0,1778,3,12141,similarity
12,6,C1350,A150,Gamma,Alpha,0.9999999999999998,2435,3,12141,similarity
13,6,C1350,B650,Gamma,Beta,2.0,2171,3,12141,similarity
14,6,C1350,A250,Gamma,Alpha,0.9999999999999998,2843,3,12141,similarity
8,7,B550,B750,Beta,Beta,4.0,2531,3,12141,similarity
9,7,B550,C1150,Beta,Gamma,2.0,1490,3,12141,similarity
10,7,B550,B950,Beta, Beta,2.0,1714,3,12141,similarity
11,7,B550,A50,Beta,Alpha,0.0,1843,3,12141,similarity
12,7,B550,A150,Beta,Alpha,2.0,1866,3,12141,similarity
13,7,B550,B650,Beta,Beta,6.0,1843,3,12141,similarity
14,7,B550,A250,Beta,Alpha,4.0,1570,3,12141,similarity
9,8,B750,C1150,Beta,Gamma,3.0,2122,3,12141,similarity
10,8,B750,B950,Beta, Beta,3.0,1291,3,12141,similarity
11,8,B750,A50,Beta,Alpha,0.9999999999999998,1771,3,12141,similarity
12,8,B750,A150,Beta,Alpha,0.9999999999999998,994,3,12141,similarity
13,8,B750,B650,Beta,Beta,6.0,1910,3,12141,similarity
14,8,B750,A250,Beta,Alpha,2.0,1731,3,12141,similarity
10,9,C1150,B950,Gamma, Beta,5.0,2484,3,12141,similarity
11,9,C1150,A50,Gamma,Alpha,0.0,2106,3,12141,similarity
12,9,C1150,A150,Gamma,Alpha,0.9999999999999998,1474,3,12141,similarity
13,9,C1150,B650,Gamma,Beta,3.0,1594,3,12141,similarity
14,9,C1150,A250,Gamma,Alpha,2.0,1722,3,12141,similarity
11,10,B950,A50, Beta,Alpha,0.0,1569,3,12141,similarity
12,10,B950,A150, Beta,Alpha,0.9999999999999998,1547,3,12141,similarity
13,10,B950,B650, Beta,Beta,3.0,1571,3,12141,similarity
14,10,B950,A250, Beta,Alpha,2.0,1770,3,12141,similarity
12,11,A50,A150,Alpha,Alpha,5.0,2444,3,12141,similarity
13,11,A50,B650,Alpha,Beta,0.0,1725,3,12141,similarity
14,11,A50,A250,Alpha,Alpha,4.0,1761,3,12141,similarity
13,12,A150,B650,Alpha,Beta,0.0,1538,3,12141,similarity
14,12,A150,A250,Alpha,Alpha,6.0,3266,3,12141,similarity
14,13,B650,A250,Beta,Alpha,4.0,2105,3,12141,similarity
1,0,C1350,C1150,Gamma,Gamma,3.0,4425,3,12144,similarity
2,0,C1350,C1050,Gamma,Gamma,4.0,3314,3,12144,similarity
3,0,C1350,C1250,Gamma,Gamma,6.0,5035,3,12144,similarity
4,0,C1350,A50,Gamma,Alpha,0.0,2451,3,12144,similarity
5,0,C1350,A150,Gamma,Alpha,0.0,1972,3,12144,similarity
6,0,C1350,A450,Gamma,Alpha,0.0,3094,3,12144,similarity
7,0,C1350,C1450,Gamma,Gamma,6.0,3130,3,12144,similarity
8,0,C1350,B550,Gamma,Beta,0.0,3323,3,12144,similarity
9,0,C1350,A350,Gamma,Alpha,0.0,689,3,12144,similarity
10,0,C1350,A250,Gamma,Alpha,0.0,639,3,12144,similarity
11,0,C1350,B650,Gamma,Beta,0.0,1342,3,12144,similarity
12,0,C1350,B750,Gamma,Beta,2.0,4942,3,12144,similarity
13,0,C1350,B850,Gamma,Beta,3.0,4299,3,12144,similarity
14,0,C1350,B950,Gamma, Beta,3.0,1599,3,12144,similarity
2,1,C1150,C1050,Gamma,Gamma,6.0,2416,3,12144,similarity
3,1,C1150,C1250,Gamma,Gamma,6.0,957,3,12144,similarity
4,1,C1150,A50,Gamma,Alpha,0.0,2591,3,12144,similarity
5,1,C1150,A150,Gamma,Alpha,0.0,604,3,12144,similarity
6,1,C1150,A450,Gamma,Alpha,0.0,548,3,12144,similarity
7,1,C1150,C1450,Gamma,Gamma,6.0,2175,3,12144,similarity
8,1,C1150,B550,Gamma,Beta,0.9999999999999998,2716,3,12144,similarity
9,1,C1150,A350,Gamma,Alpha,0.0,2499,3,12144,similarity
10,1,C1150,A250,Gamma,Alpha,0.0,509,3,12144,similarity
11,1,C1150,B650,Gamma,Beta,0.9999999999999998,2358,3,12144,similarity
12,1,C1150,B750,Gamma,Beta,5.0,3340,3,12144,similarity
13,1,C1150,B850,Gamma,Beta,5.0,1388,3,12144,similarity
14,1,C1150,B950,Gamma, Beta,6.0,2619,3,12144,similarity
3,2,C1050,C1250,Gamma,Gamma,6.0,801,3,12144,similarity
4,2,C1050,A50,Gamma,Alpha,0.0,3178,3,12144,similarity
5,2,C1050,A150,Gamma,Alpha,0.0,706,3,12144,similarity
6,2,C1050,A450,Gamma,Alpha,0.0,867,3,12144,similarity
7,2,C1050,C1450,Gamma,Gamma,3.0,3457,3,12144,similarity
8,2,C1050,B550,Gamma,Beta,2.0,3336,3,12144,similarity
9,2,C1050,A350,Gamma,Alpha,0.0,2723,3,12144,similarity
10,2,C1050,A250,Gamma,Alpha,0.0,529,3,12144,similarity
11,2,C1050,B650,Gamma,Beta,3.0,2507,3,12144,similarity
12,2,C1050,B750,Gamma,Beta,3.0,1867,3,12144,similarity
13,2,C1050,B850,Gamma,Beta,6.0,2266,3,12144,similarity
14,2,C1050,B950,Gamma, Beta,6.0,957,3,12144,similarity
4,3,C1250,A50,Gamma,Alpha,0.0,3279,3,12144,similarity
5,3,C1250,A150,Gamma,Alpha,0.0,480,3,12144,similarity
6,3,C1250,A450,Gamma,Alpha,0.0,517,3,12144,similarity
7,3,C1250,C1450,Gamma,Gamma,6.0,2145,3,12144,similarity
8,3,C1250,B550,Gamma,Beta,3.0,2481,3,12144,similarity
9,3,C1250,A350,Gamma,Alpha,0.0,2147,3,12144,similarity
10,3,C1250,A250,Gamma,Alpha,0.0,477,3,12144,similarity
11,3,C1250,B650,Gamma,Beta,2.0,4626,3,12144,similarity
12,3,C1250,B750,Gamma,Beta,2.0,954,3,12144,similarity
13,3,C1250,B850,Gamma,Beta,2.0,696,3,12144,similarity
14,3,C1250,B950,Gamma, Beta,4.0,2005,3,12144,similarity
5,4,A50,A150,Alpha,Alpha,3.0,4723,3,12144,similarity
6,4,A50,A450,Alpha,Alpha,0.0,1962,3,12144,similarity
7,4,A50,C1450,Alpha,Gamma,0.0,1042,3,12144,similarity
8,4,A50,B550,Alpha,Beta,0.0,657,3,12144,similarity
9,4,A50,A350,Alpha,Alpha,0.0,470,3,12144,similarity
10,4,A50,A250,Alpha,Alpha,0.0,699,3,12144,similarity
11,4,A50,B650,Alpha,Beta,0.0,615,3,12144,similarity
12,4,A50,B750,Alpha,Beta,0.0,453,3,12144,similarity
13,4,A50,B850,Alpha,Beta,0.0,419,3,12144,similarity
14,4,A50,B950,Alpha, Beta,0.0,441,3,12144,similarity
6,5,A150,A450,Alpha,Alpha,0.9999999999999998,3974,3,12144,similarity
7,5,A150,C1450,Alpha,Gamma,0.0,2303,3,12144,similarity
8,5,A150,B550,Alpha,Beta,0.9999999999999998,2302,3,12144,similarity
9,5,A150,A350,Alpha,Alpha,0.9999999999999998,490,3,12144,similarity
10,5,A150,A250,Alpha,Alpha,6.0,2286,3,12144,similarity
11,5,A150,B650,Alpha,Beta,2.0,2530,3,12144,similarity
12,5,A150,B750,Alpha,Beta,0.9999999999999998,1467,3,12144,similarity
13,5,A150,B850,Alpha,Beta,0.0,1313,3,12144,similarity
14,5,A150,B950,Alpha, Beta,0.0,435,3,12144,similarity
7,6,A450,C1450,Alpha,Gamma,0.0,1048,3,12144,similarity
8,6,A450,B550,Alpha,Beta,6.0,2749,3,12144,similarity
9,6,A450,A350,Alpha,Alpha,6.0,1222,3,12144,similarity
10,6,A450,A250,Alpha,Alpha,5.0,2908,3,12144,similarity
11,6,A450,B650,Alpha,Beta,6.0,2165,3,12144,similarity
12,6,A450,B750,Alpha,Beta,4.0,2227,3,12144,similarity
13,6,A450,B850,Alpha,Beta,3.0,1811,3,12144,similarity
14,6,A450,B950,Alpha, Beta,0.9999999999999998,2001,3,12144,similarity
8,7,C1450,B550,Gamma,Beta,0.9999999999999998,633,3,12144,similarity
9,7,C1450,A350,Gamma,Alpha,0.0,1868,3,12144,similarity
10,7,C1450,A250,Gamma,Alpha,0.0,420,3,12144,similarity
11,7,C1450,B650,Gamma,Beta,0.0,586,3,12144,similarity
12,7,C1450,B750,Gamma,Beta,0.0,1147,3,12144,similarity
13,7,C1450,B850,Gamma,Beta,0.0,938,3,12144,similarity
14,7,C1450,B950,Gamma, Beta,0.0,677,3,12144,similarity
9,8,B550,A350,Beta,Alpha,6.0,2722,3,12144,similarity
10,8,B550,A250,Beta,Alpha,6.0,987,3,12144,similarity
11,8,B550,B650,Beta,Beta,6.0,1235,3,12144,similarity
12,8,B550,B750,Beta,Beta,6.0,803,3,12144,similarity
13,8,B550,B850,Beta,Beta,4.0,2572,3,12144,similarity
14,8,B550,B950,Beta, Beta,4.0,1022,3,12144,similarity
10,9,A350,A250,Alpha,Alpha,6.0,2221,3,12144,similarity
11,9,A350,B650,Alpha,Beta,3.0,1894,3,12144,similarity
12,9,A350,B750,Alpha,Beta,3.0,1050,3,12144,similarity
13,9,A350,B850,Alpha,Beta,3.0,484,3,12144,similarity
14,9,A350,B950,Alpha, Beta,2.0,2119,3,12144,similarity
11,10,A250,B650,Alpha,Beta,2.0,3586,3,12144,similarity
12,10,A250,B750,Alpha,Beta,0.0,4354,3,12144,similarity
13,10,A250,B850,Alpha,Beta,0.0,463,3,12144,similarity
14,10,A250,B950,Alpha, Beta,0.0,412,3,12144,similarity
12,11,B650,B750,Beta,Beta,6.0,2236,3,12144,similarity
13,11,B650,B850,Beta,Beta,6.0,549,3,12144,similarity
14,11,B650,B950,Beta, Beta,6.0,722,3,12144,similarity
13,12,B750,B850,Beta,Beta,6.0,1189,3,12144,similarity
14,12,B750,B950,Beta, Beta,6.0,1589,3,12144,similarity
14,13,B850,B950,Beta, Beta,6.0,620,3,12144,similarity
1,0,C1050,C1250,Gamma,Gamma,2.0,17485,3,12161,similarity
2,0,C1050,C1350,Gamma,Gamma,0.9999999999999998,8294,3,12161,similarity
3,0,C1050,C1450,Gamma,Gamma,0.9999999999999998,4151,3,12161,similarity
4,0,C1050,A250,Gamma,Alpha,0.0,5591,3,12161,similarity
5,0,C1050,A350,Gamma,Alpha,0.0,2579,3,12161,similarity
6,0,C1050,A150,Gamma,Alpha,0.0,1802,3,12161,similarity
7,0,C1050,B950,Gamma, Beta,3.0,4998,3,12161,similarity
8,0,C1050,B850,Gamma,Beta,4.0,7882,3,12161,similarity
9,0,C1050,A450,Gamma,Alpha,3.0,3580,3,12161,similarity
10,0,C1050,C1150,Gamma,Gamma,5.0,4292,3,12161,similarity
11,0,C1050,B550,Gamma,Beta,2.0,8078,3,12161,similarity
12,0,C1050,B750,Gamma,Beta,4.0,13415,3,12161,similarity
13,0,C1050,B650,Gamma,Beta,4.0,3091,3,12161,similarity
14,0,C1050,A50,Gamma,Alpha,0.0,3358,3,12161,similarity
2,1,C1250,C1350,Gamma,Gamma,6.0,7133,3,12161,similarity
3,1,C1250,C1450,Gamma,Gamma,5.0,5211,3,12161,similarity
4,1,C1250,A250,Gamma,Alpha,0.9999999999999998,6841,3,12161,similarity
5,1,C1250,A350,Gamma,Alpha,0.9999999999999998,7863,3,12161,similarity
6,1,C1250,A150,Gamma,Alpha,0.0,4498,3,12161,similarity
7,1,C1250,B950,Gamma, Beta,4.0,6380,3,12161,similarity
8,1,C1250,B850,Gamma,Beta,4.0,4628,3,12161,similarity
9,1,C1250,A450,Gamma,Alpha,2.0,5543,3,12161,similarity
10,1,C1250,C1150,Gamma,Gamma,5.0,8794,3,12161,similarity
11,1,C1250,B550,Gamma,Beta,2.0,6229,3,12161,similarity
12,1,C1250,B750,Gamma,Beta,2.0,3113,3,12161,similarity
13,1,C1250,B650,Gamma,Beta,2.0,5383,3,12161,similarity
14,1,C1250,A50,Gamma,Alpha,0.0,3449,3,12161,similarity
3,2,C1350,C1450,Gamma,Gamma,6.0,5871,3,12161,similarity
4,2,C1350,A250,Gamma,Alpha,0.9999999999999998,4440,3,12161,similarity
5,2,C1350,A350,Gamma,Alpha,0.9999999999999998,3085,3,12161,similarity
6,2,C1350,A150,Gamma,Alpha,0.0,4540,3,12161,similarity
7,2,C1350,B950,Gamma, Beta,4.0,6736,3,12161,similarity
8,2,C1350,B850,Gamma,Beta,3.0,10961,3,12161,similarity
9,2,C1350,A450,Gamma,Alpha,0.9999999999999998,4801,3,12161,similarity
10,2,C1350,C1150,Gamma,Gamma,5.0,4108,3,12161,similarity
11,2,C1350,B550,Gamma,Beta,2.0,6766,3,12161,similarity
12,2,C1350,B750,Gamma,Beta,2.0,7885,3,12161,similarity
13,2,C1350,B650,Gamma,Beta,2.0,2878,3,12161,similarity
14,2,C1350,A50,Gamma,Alpha,0.0,3273,3,12161,similarity
4,3,C1450,A250,Gamma,Alpha,0.9999999999999998,3345,3,12161,similarity
5,3,C1450,A350,Gamma,Alpha,0.9999999999999998,2158,3,12161,similarity
6,3,C1450,A150,Gamma,Alpha,0.0,3439,3,12161,similarity
7,3,C1450,B950,Gamma, Beta,2.0,4236,3,12161,similarity
8,3,C1450,B850,Gamma,Beta,2.0,4640,3,12161,similarity
9,3,C1450,A450,Gamma,Alpha,2.0,2470,3,12161,similarity
10,3,C1450,C1150,Gamma,Gamma,5.0,4177,3,12161,similarity
11,3,C1450,B550,Gamma,Beta,2.0,7914,3,12161,similarity
12,3,C1450,B750,Gamma,Beta,4.0,6552,3,12161,similarity
13,3,C1450,B650,Gamma,Beta,4.0,2240,3,12161,similarity
14,3,C1450,A50,Gamma,Alpha,0.0,3453,3,12161,similarity
5,4,A250,A350,Alpha,Alpha,6.0,4394,3,12161,similarity
6,4,A250,A150,Alpha,Alpha,6.0,1719,3,12161,similarity
7,4,A250,B950,Alpha, Beta,2.0,8490,3,12161,similarity
8,4,A250,B850,Alpha,Beta,2.0,2012,3,12161,similarity
9,4,A250,A450,Alpha,Alpha,4.0,3561,3,12161,similarity
10,4,A250,C1150,Alpha,Gamma,2.0,6168,3,12161,similarity
11,4,A250,B550,Alpha,Beta,4.0,5824,3,12161,similarity
12,4,A250,B750,Alpha,Beta,4.0,1636,3,12161,similarity
13,4,A250,B650,Alpha,Beta,4.0,1467,3,12161,similarity
14,4,A250,A50,Alpha,Alpha,2.0,4863,3,12161,similarity
6,5,A350,A150,Alpha,Alpha,3.0,5505,3,12161,similarity
7,5,A350,B950,Alpha, Beta,2.0,5531,3,12161,similarity
8,5,A350,B850,Alpha,Beta,2.0,1244,3,12161,similarity
9,5,A350,A450,Alpha,Alpha,6.0,3048,3,12161,similarity
10,5,A350,C1150,Alpha,Gamma,0.9999999999999998,5355,3,12161,similarity
11,5,A350,B550,Alpha,Beta,4.0,7061,3,12161,similarity
12,5,A350,B750,Alpha,Beta,2.0,4346,3,12161,similarity
13,5,A350,B650,Alpha,Beta,4.0,6338,3,12161,similarity
14,5,A350,A50,Alpha,Alpha,0.0,7452,3,12161,similarity
7,6,A150,B950,Alpha, Beta,0.9999999999999998,3946,3,12161,similarity
8,6,A150,B850,Alpha,Beta,0.9999999999999998,1414,3,12161,similarity
9,6,A150,A450,Alpha,Alpha,3.0,3444,3,12161,similarity
10,6,A150,C1150,Alpha,Gamma,0.0,3440,3,12161,similarity
11,6,A150,B550,Alpha,Beta,0.9999999999999998,3645,3,12161,similarity
12,6,A150,B750,Alpha,Beta,0.9999999999999998,1265,3,12161,similarity
13,6,A150,B650,Alpha,Beta,0.9999999999999998,1029,3,12161,similarity
14,6,A150,A50,Alpha,Alpha,4.0,5445,3,12161,similarity
8,7,B950,B850, Beta,Beta,6.0,2839,3,12161,similarity
9,7,B950,A450, Beta,Alpha,3.0,3949,3,12161,similarity
10,7,B950,C1150, Beta,Gamma,5.0,3815,3,12161,similarity
11,7,B950,B550, Beta,Beta,4.0,6171,3,12161,similarity
12,7,B950,B750, Beta,Beta,5.0,3274,3,12161,similarity
13,7,B950,B650, Beta,Beta,5.0,1630,3,12161,similarity
14,7,B950,A50, Beta,Alpha,0.0,3865,3,12161,similarity
9,8,B850,A450,Beta,Alpha,3.0,4630,3,12161,similarity
10,8,B850,C1150,Beta,Gamma,5.0,3164,3,12161,similarity
11,8,B850,B550,Beta,Beta,5.0,3012,3,12161,similarity
12,8,B850,B750,Beta,Beta,6.0,2904,3,12161,similarity
13,8,B850,B650,Beta,Beta,5.0,3837,3,12161,similarity
14,8,B850,A50,Beta,Alpha,0.0,3175,3,12161,similarity
10,9,A450,C1150,Alpha,Gamma,3.0,4102,3,12161,similarity
11,9,A450,B550,Alpha,Beta,5.0,3242,3,12161,similarity
12,9,A450,B750,Alpha,Beta,5.0,4229,3,12161,similarity
13,9,A450,B650,Alpha,Beta,5.0,2041,3,12161,similarity
14,9,A450,A50,Alpha,Alpha,0.0,5497,3,12161,similarity
11,10,C1150,B550,Gamma,Beta,2.0,3490,3,12161,similarity
12,10,C1150,B750,Gamma,Beta,3.0,4814,3,12161,similarity
13,10,C1150,B650,Gamma,Beta,3.0,1827,3,12161,similarity
14,10,C1150,A50,Gamma,Alpha,0.0,3393,3,12161,similarity
12,11,B550,B750,Beta,Beta,6.0,4639,3,12161,similarity
13,11,B550,B650,Beta,Beta,6.0,1139,3,12161,similarity
14,11,B550,A50,Beta,Alpha,0.0,3588,3,12161,similarity
13,12,B750,B650,Beta,Beta,6.0,3284,3,12161,similarity
14,12,B750,A50,Beta,Alpha,0.0,3669,3,12161,similarity
14,13,B650,A50,Beta,Alpha,0.0,1173,3,12161,similarity
1,0,A450,A350,Alpha,Alpha,0.9999999999999998,7257,3,12183,similarity
2,0,A450,B550,Alpha,Beta,0.9999999999999998,2228,3,12183,similarity
3,0,A450,B850,Alpha,Beta,0.0,6330,3,12183,similarity
4,0,A450,A250,Alpha,Alpha,0.0,987,3,12183,similarity
5,0,A450,B950,Alpha, Beta,0.0,1392,3,12183,similarity
6,0,A450,C1150,Alpha,Gamma,0.0,1130,3,12183,similarity
7,0,A450,C1450,Alpha,Gamma,0.0,754,3,12183,similarity
8,0,A450,A150,Alpha,Alpha,0.0,1476,3,12183,similarity
9,0,A450,C1250,Alpha,Gamma,0.0,2799,3,12183,similarity
10,0,A450,B650,Alpha,Beta,2.0,2718,3,12183,similarity
11,0,A450,C1050,Alpha,Gamma,2.0,2188,3,12183,similarity
12,0,A450,A50,Alpha,Alpha,0.9999999999999998,4677,3,12183,similarity
13,0,A450,B750,Alpha,Beta,0.9999999999999998,1643,3,12183,similarity
14,0,A450,C1350,Alpha,Gamma,0.0,2467,3,12183,similarity
2,1,A350,B550,Alpha,Beta,3.0,2675,3,12183,similarity
3,1,A350,B850,Alpha,Beta,2.0,2364,3,12183,similarity
4,1,A350,A250,Alpha,Alpha,2.0,841,3,12183,similarity
5,1,A350,B950,Alpha, Beta,2.0,1491,3,12183,similarity
6,1,A350,C1150,Alpha,Gamma,0.0,3123,3,12183,similarity
7,1,A350,C1450,Alpha,Gamma,0.0,896,3,12183,similarity
8,1,A350,A150,Alpha,Alpha,5.0,4035,3,12183,similarity
9,1,A350,C1250,Alpha,Gamma,0.0,2649,3,12183,similarity
10,1,A350,B650,Alpha,Beta,0.0,610,3,12183,similarity
11,1,A350,C1050,Alpha,Gamma,0.0,827,3,12183,similarity
12,1,A350,A50,Alpha,Alpha,0.0,758,3,12183,similarity
13,1,A350,B750,Alpha,Beta,0.0,787,3,12183,similarity
14,1,A350,C1350,Alpha,Gamma,0.0,989,3,12183,similarity
3,2,B550,B850,Beta,Beta,4.0,2412,3,12183,similarity
4,2,B550,A250,Beta,Alpha,0.9999999999999998,3145,3,12183,similarity
5,2,B550,B950,Beta, Beta,0.9999999999999998,650,3,12183,similarity
6,2,B550,C1150,Beta,Gamma,0.9999999999999998,731,3,12183,similarity
7,2,B550,C1450,Beta,Gamma,0.9999999999999998,467,3,12183,similarity
8,2,B550,A150,Beta,Alpha,0.0,3137,3,12183,similarity
9,2,B550,C1250,Beta,Gamma,0.0,719,3,12183,similarity
10,2,B550,B650,Beta,Beta,0.0,546,3,12183,similarity
11,2,B550,C1050,Beta,Gamma,0.0,2147,3,12183,similarity
12,2,B550,A50,Beta,Alpha,0.0,1364,3,12183,similarity
13,2,B550,B750,Beta,Beta,6.0,2873,3,12183,similarity
14,2,B550,C1350,Beta,Gamma,0.0,2330,3,12183,similarity
4,3,B850,A250,Beta,Alpha,0.0,744,3,12183,similarity
5,3,B850,B950,Beta, Beta,6.0,2842,3,12183,similarity
6,3,B850,C1150,Beta,Gamma,6.0,632,3,12183,similarity
7,3,B850,C1450,Beta,Gamma,2.0,2438,3,12183,similarity
8,3,B850,A150,Beta,Alpha,2.0,619,3,12183,similarity
9,3,B850,C1250,Beta,Gamma,6.0,2211,3,12183,similarity
10,3,B850,B650,Beta,Beta,6.0,1090,3,12183,similarity
11,3,B850,C1050,Beta,Gamma,6.0,1740,3,12183,similarity
12,3,B850,A50,Beta,Alpha,0.0,2174,3,12183,similarity
13,3,B850,B750,Beta,Beta,5.0,3945,3,12183,similarity
14,3,B850,C1350,Beta,Gamma,5.0,443,3,12183,similarity
5,4,A250,B950,Alpha, Beta,0.9999999999999998,2599,3,12183,similarity
6,4,A250,C1150,Alpha,Gamma,0.0,2859,3,12183,similarity
7,4,A250,C1450,Alpha,Gamma,0.0,1163,3,12183,similarity
8,4,A250,A150,Alpha,Alpha,6.0,4912,3,12183,similarity
9,4,A250,C1250,Alpha,Gamma,0.0,2246,3,12183,similarity
10,4,A250,B650,Alpha,Beta,0.0,1931,3,12183,similarity
11,4,A250,C1050,Alpha,Gamma,0.0,955,3,12183,similarity
12,4,A250,A50,Alpha,Alpha,0.0,552,3,12183,similarity
13,4,A250,B750,Alpha,Beta,0.0,540,3,12183,similarity
14,4,A250,C1350,Alpha,Gamma,0.0,764,3,12183,similarity
6,5,B950,C1150, Beta,Gamma,6.0,2749,3,12183,similarity
7,5,B950,C1450, Beta,Gamma,6.0,649,3,12183,similarity
8,5,B950,A150, Beta,Alpha,0.0,3190,3,12183,similarity
9,5,B950,C1250, Beta,Gamma,6.0,2723,3,12183,similarity
10,5,B950,B650, Beta,Beta,6.0,715,3,12183,similarity
11,5,B950,C1050, Beta,Gamma,6.0,614,3,12183,similarity
12,5,B950,A50, Beta,Alpha,0.0,4774,3,12183,similarity
13,5,B950,B750, Beta,Beta,6.0,3658,3,12183,similarity
14,5,B950,C1350, Beta,Gamma,6.0,647,3,12183,similarity
7,6,C1150,C1450,Gamma,Gamma,6.0,495,3,12183,similarity
8,6,C1150,A150,Gamma,Alpha,0.9999999999999998,2825,3,12183,similarity
9,6,C1150,C1250,Gamma,Gamma,6.0,2810,3,12183,similarity
10,6,C1150,B650,Gamma,Beta,6.0,510,3,12183,similarity
11,6,C1150,C1050,Gamma,Gamma,6.0,371,3,12183,similarity
12,6,C1150,A50,Gamma,Alpha,0.0,3529,3,12183,similarity
13,6,C1150,B750,Gamma,Beta,0.0,2251,3,12183,similarity
14,6,C1150,C1350,Gamma,Gamma,0.0,986,3,12183,similarity
8,7,C1450,A150,Gamma,Alpha,0.0,2083,3,12183,similarity
9,7,C1450,C1250,Gamma,Gamma,0.0,932,3,12183,similarity
10,7,C1450,B650,Gamma,Beta,6.0,4533,3,12183,similarity
11,7,C1450,C1050,Gamma,Gamma,6.0,532,3,12183,similarity
12,7,C1450,A50,Gamma,Alpha,0.0,3682,3,12183,similarity
13,7,C1450,B750,Gamma,Beta,0.0,1266,3,12183,similarity
14,7,C1450,C1350,Gamma,Gamma,6.0,3707,3,12183,similarity
9,8,A150,C1250,Alpha,Gamma,0.9999999999999998,3163,3,12183,similarity
10,8,A150,B650,Alpha,Beta,0.9999999999999998,606,3,12183,similarity
11,8,A150,C1050,Alpha,Gamma,0.9999999999999998,1293,3,12183,similarity
12,8,A150,A50,Alpha,Alpha,5.0,2971,3,12183,similarity
13,8,A150,B750,Alpha,Beta,3.0,3507,3,12183,similarity
14,8,A150,C1350,Alpha,Gamma,0.0,2179,3,12183,similarity
10,9,C1250,B650,Gamma,Beta,0.0,1611,3,12183,similarity
11,9,C1250,C1050,Gamma,Gamma,6.0,3731,3,12183,similarity
12,9,C1250,A50,Gamma,Alpha,0.0,3716,3,12183,similarity
13,9,C1250,B750,Gamma,Beta,0.9999999999999998,3213,3,12183,similarity
14,9,C1250,C1350,Gamma,Gamma,6.0,2962,3,12183,similarity
11,10,B650,C1050,Beta,Gamma,5.0,2652,3,12183,similarity
12,10,B650,A50,Beta,Alpha,0.0,2597,3,12183,similarity
13,10,B650,B750,Beta,Beta,0.0,1078,3,12183,similarity
14,10,B650,C1350,Beta,Gamma,0.0,2300,3,12183,similarity
12,11,C1050,A50,Gamma,Alpha,0.0,705,3,12183,similarity
13,11,C1050,B750,Gamma,Beta,2.0,2323,3,12183,similarity
14,11,C1050,C1350,Gamma,Gamma,6.0,4451,3,12183,similarity
13,12,A50,B750,Alpha,Beta,0.0,4984,3,12183,similarity
14,12,A50,C1350,Alpha,Gamma,0.0,666,3,12183,similarity
14,13,B750,C1350,Beta,Gamma,2.0,2564,3,12183,similarity
1,0,C1150,C1250,Gamma,Gamma,4.0,8831,3,12186,similarity
2,0,C1150,B750,Gamma,Beta,2.0,4171,3,12186,similarity
3,0,C1150,B850,Gamma,Beta,2.0,5821,3,12186,similarity
4,0,C1150,B950,Gamma, Beta,2.0,2777,3,12186,similarity
5,0,C1150,A250,Gamma,Alpha,0.0,2925,3,12186,similarity
6,0,C1150,C1450,Gamma,Gamma,4.0,6433,3,12186,similarity
7,0,C1150,A50,Gamma,Alpha,0.0,2489,3,12186,similarity
8,0,C1150,A150,Gamma,Alpha,0.0,1242,3,12186,similarity
9,0,C1150,B550,Gamma,Beta,0.9999999999999998,3750,3,12186,similarity
10,0,C1150,C1350,Gamma,Gamma,5.0,6395,3,12186,similarity
11,0,C1150,B650,Gamma,Beta,2.0,7194,3,12186,similarity
12,0,C1150,C1050,Gamma,Gamma,6.0,3195,3,12186,similarity
13,0,C1150,A350,Gamma,Alpha,2.0,5051,3,12186,similarity
14,0,C1150,A450,Gamma,Alpha,0.9999999999999998,4357,3,12186,similarity
2,1,C1250,B750,Gamma,Beta,0.9999999999999998,2609,3,12186,similarity
3,1,C1250,B850,Gamma,Beta,2.0,3059,3,12186,similarity
4,1,C1250,B950,Gamma, Beta,2.0,3096,3,12186,similarity
5,1,C1250,A250,Gamma,Alpha,0.0,4693,3,12186,similarity
6,1,C1250,C1450,Gamma,Gamma,5.0,3803,3,12186,similarity
7,1,C1250,A50,Gamma,Alpha,0.0,3378,3,12186,similarity
8,1,C1250,A150,Gamma,Alpha,0.0,1181,3,12186,similarity
9,1,C1250,B550,Gamma,Beta,0.9999999999999998,5399,3,12186,similarity
10,1,C1250,C1350,Gamma,Gamma,6.0,3417,3,12186,similarity
11,1,C1250,B650,Gamma,Beta,2.0,3967,3,12186,similarity
12,1,C1250,C1050,Gamma,Gamma,5.0,4602,3,12186,similarity
13,1,C1250,A350,Gamma,Alpha,0.9999999999999998,4961,3,12186,similarity
14,1,C1250,A450,Gamma,Alpha,0.9999999999999998,2003,3,12186,similarity
3,2,B750,B850,Beta,Beta,6.0,3945,3,12186,similarity
4,2,B750,B950,Beta, Beta,6.0,4546,3,12186,similarity
5,2,B750,A250,Beta,Alpha,0.0,7054,3,12186,similarity
6,2,B750,C1450,Beta,Gamma,0.0,2020,3,12186,similarity
7,2,B750,A50,Beta,Alpha,0.0,1254,3,12186,similarity
8,2,B750,A150,Beta,Alpha,0.0,1155,3,12186,similarity
9,2,B750,B550,Beta,Beta,3.0,6157,3,12186,similarity
10,2,B750,C1350,Beta,Gamma,0.9999999999999998,4179,3,12186,similarity
11,2,B750,B650,Beta,Beta,5.0,3093,3,12186,similarity
12,2,B750,C1050,Beta,Gamma,4.0,5477,3,12186,similarity
13,2,B750,A350,Beta,Alpha,2.0,6049,3,12186,similarity
14,2,B750,A450,Beta,Alpha,2.0,1427,3,12186,similarity
4,3,B850,B950,Beta, Beta,6.0,3090,3,12186,similarity
5,3,B850,A250,Beta,Alpha,0.9999999999999998,4348,3,12186,similarity
6,3,B850,C1450,Beta,Gamma,0.9999999999999998,4231,3,12186,similarity
7,3,B850,A50,Beta,Alpha,0.0,2392,3,12186,similarity
8,3,B850,A150,Beta,Alpha,0.0,1247,3,12186,similarity
9,3,B850,B550,Beta,Beta,0.9999999999999998,2104,3,12186,similarity
10,3,B850,C1350,Beta,Gamma,0.9999999999999998,2724,3,12186,similarity
11,3,B850,B650,Beta,Beta,4.0,5178,3,12186,similarity
12,3,B850,C1050,Beta,Gamma,4.0,4546,3,12186,similarity
13,3,B850,A350,Beta,Alpha,2.0,2498,3,12186,similarity
14,3,B850,A450,Beta,Alpha,2.0,1137,3,12186,similarity
5,4,B950,A250, Beta,Alpha,0.9999999999999998,3140,3,12186,similarity
6,4,B950,C1450, Beta,Gamma,0.9999999999999998,2393,3,12186,similarity
7,4,B950,A50, Beta,Alpha,0.0,2305,3,12186,similarity
8,4,B950,A150, Beta,Alpha,0.0,880,3,12186,similarity
9,4,B950,B550, Beta,Beta,3.0,12453,3,12186,similarity
10,4,B950,C1350, Beta,Gamma,4.0,10517,3,12186,similarity
11,4,B950,B650, Beta,Beta,4.0,1563,3,12186,similarity
12,4,B950,C1050, Beta,Gamma,6.0,2210,3,12186,similarity
13,4,B950,A350, Beta,Alpha,2.0,2290,3,12186,similarity
14,4,B950,A450, Beta,Alpha,0.9999999999999998,3558,3,12186,similarity
6,5,A250,C1450,Alpha,Gamma,0.0,1914,3,12186,similarity
7,5,A250,A50,Alpha,Alpha,0.0,2876,3,12186,similarity
8,5,A250,A150,Alpha,Alpha,4.0,3676,3,12186,similarity
9,5,A250,B550,Alpha,Beta,3.0,10763,3,12186,similarity
10,5,A250,C1350,Alpha,Gamma,0.0,4907,3,12186,similarity
11,5,A250,B650,Alpha,Beta,2.0,4408,3,12186,similarity
12,5,A250,C1050,Alpha,Gamma,0.9999999999999998,4072,3,12186,similarity
13,5,A250,A350,Alpha,Alpha,6.0,6297,3,12186,similarity
14,5,A250,A450,Alpha,Alpha,5.0,2227,3,12186,similarity
7,6,C1450,A50,Gamma,Alpha,0.0,2156,3,12186,similarity
8,6,C1450,A150,Gamma,Alpha,0.0,898,3,12186,similarity
9,6,C1450,B550,Gamma,Beta,0.0,2355,3,12186,similarity
10,6,C1450,C1350,Gamma,Gamma,6.0,5158,3,12186,similarity
11,6,C1450,B650,Gamma,Beta,0.0,6347,3,12186,similarity
12,6,C1450,C1050,Gamma,Gamma,2.0,2948,3,12186,similarity
13,6,C1450,A350,Gamma,Alpha,0.0,2931,3,12186,similarity
14,6,C1450,A450,Gamma,Alpha,0.0,1561,3,12186,similarity
8,7,A50,A150,Alpha,Alpha,0.9999999999999998,4837,3,12186,similarity
9,7,A50,B550,Alpha,Beta,0.0,2961,3,12186,similarity
10,7,A50,C1350,Alpha,Gamma,0.0,980,3,12186,similarity
11,7,A50,B650,Alpha,Beta,0.0,1723,3,12186,similarity
12,7,A50,C1050,Alpha,Gamma,0.0,668,3,12186,similarity
13,7,A50,A350,Alpha,Alpha,0.0,4914,3,12186,similarity
14,7,A50,A450,Alpha,Alpha,0.0,667,3,12186,similarity
9,8,A150,B550,Alpha,Beta,0.0,3688,3,12186,similarity
10,8,A150,C1350,Alpha,Gamma,0.0,1050,3,12186,similarity
11,8,A150,B650,Alpha,Beta,0.9999999999999998,4286,3,12186,similarity
12,8,A150,C1050,Alpha,Gamma,0.0,2808,3,12186,similarity
13,8,A150,A350,Alpha,Alpha,0.9999999999999998,2683,3,12186,similarity
14,8,A150,A450,Alpha,Alpha,0.9999999999999998,5810,3,12186,similarity
10,9,B550,C1350,Beta,Gamma,0.9999999999999998,10505,3,12186,similarity
11,9,B550,B650,Beta,Beta,6.0,4193,3,12186,similarity
12,9,B550,C1050,Beta,Gamma,2.0,13016,3,12186,similarity
13,9,B550,A350,Beta,Alpha,4.0,4290,3,12186,similarity
14,9,B550,A450,Beta,Alpha,5.0,3803,3,12186,similarity
11,10,C1350,B650,Gamma,Beta,2.0,2965,3,12186,similarity
12,10,C1350,C1050,Gamma,Gamma,4.0,5340,3,12186,similarity
13,10,C1350,A350,Gamma,Alpha,2.0,2660,3,12186,similarity
14,10,C1350,A450,Gamma,Alpha,0.9999999999999998,2855,3,12186,similarity
12,11,B650,C1050,Beta,Gamma,2.0,3260,3,12186,similarity
13,11,B650,A350,Beta,Alpha,4.0,6071,3,12186,similarity
14,11,B650,A450,Beta,Alpha,4.0,676,3,12186,similarity
13,12,C1050,A350,Gamma,Alpha,2.0,1713,3,12186,similarity
14,12,C1050,A450,Gamma,Alpha,2.0,1186,3,12186,similarity
14,13,A350,A450,Alpha,Alpha,6.0,2828,3,12186,similarity
1,0,C1250,C1450,Gamma,Gamma,3.0,9820,3,12189,similarity
2,0,C1250,C1350,Gamma,Gamma,4.0,5455,3,12189,similarity
3,0,C1250,B650,Gamma,Beta,0.9999999999999998,8047,3,12189,similarity
4,0,C1250,A450,Gamma,Alpha,0.9999999999999998,1339,3,12189,similarity
5,0,C1250,A150,Gamma,Alpha,0.0,2546,3,12189,similarity
6,0,C1250,B750,Gamma,Beta,2.0,10270,3,12189,similarity
7,0,C1250,A250,Gamma,Alpha,0.9999999999999998,2369,3,12189,similarity
8,0,C1250,C1050,Gamma,Gamma,4.0,7200,3,12189,similarity
9,0,C1250,B950,Gamma, Beta,4.0,1491,3,12189,similarity
10,0,C1250,A50,Gamma,Alpha,0.0,3483,3,12189,similarity
11,0,C1250,B550,Gamma,Beta,0.9999999999999998,5907,3,12189,similarity
12,0,C1250,C1150,Gamma,Gamma,5.0,5091,3,12189,similarity
13,0,C1250,B850,Gamma,Beta,4.0,3534,3,12189,similarity
14,0,C1250,A350,Gamma,Alpha,0.9999999999999998,3914,3,12189,similarity
2,1,C1450,C1350,Gamma,Gamma,5.0,4389,3,12189,similarity
3,1,C1450,B650,Gamma,Beta,2.0,10474,3,12189,similarity
4,1,C1450,A450,Gamma,Alpha,2.0,2360,3,12189,similarity
5,1,C1450,A150,Gamma,Alpha,0.0,2723,3,12189,similarity
6,1,C1450,B750,Gamma,Beta,0.9999999999999998,3157,3,12189,similarity
7,1,C1450,A250,Gamma,Alpha,0.0,4445,3,12189,similarity
8,1,C1450,C1050,Gamma,Gamma,4.0,3762,3,12189,similarity
9,1,C1450,B950,Gamma, Beta,4.0,1146,3,12189,similarity
10,1,C1450,A50,Gamma,Alpha,0.0,2716,3,12189,similarity
11,1,C1450,B550,Gamma,Beta,0.9999999999999998,10757,3,12189,similarity
12,1,C1450,C1150,Gamma,Gamma,4.0,2498,3,12189,similarity
13,1,C1450,B850,Gamma,Beta,3.0,7485,3,12189,similarity
14,1,C1450,A350,Gamma,Alpha,0.9999999999999998,2760,3,12189,similarity
3,2,C1350,B650,Gamma,Beta,2.0,2576,3,12189,similarity
4,2,C1350,A450,Gamma,Alpha,2.0,999,3,12189,similarity
5,2,C1350,A150,Gamma,Alpha,0.0,2231,3,12189,similarity
6,2,C1350,B750,Gamma,Beta,3.0,2892,3,12189,similarity
7,2,C1350,A250,Gamma,Alpha,0.9999999999999998,2727,3,12189,similarity
8,2,C1350,C1050,Gamma,Gamma,4.0,7544,3,12189,similarity
9,2,C1350,B950,Gamma, Beta,4.0,1000,3,12189,similarity
10,2,C1350,A50,Gamma,Alpha,0.0,2455,3,12189,similarity
11,2,C1350,B550,Gamma,Beta,2.0,8900,3,12189,similarity
12,2,C1350,C1150,Gamma,Gamma,5.0,9612,3,12189,similarity
13,2,C1350,B850,Gamma,Beta,4.0,2932,3,12189,similarity
14,2,C1350,A350,Gamma,Alpha,2.0,2476,3,12189,similarity
4,3,B650,A450,Beta,Alpha,4.0,5557,3,12189,similarity
5,3,B650,A150,Beta,Alpha,0.9999999999999998,2661,3,12189,similarity
6,3,B650,B750,Beta,Beta,5.0,3001,3,12189,similarity
7,3,B650,A250,Beta,Alpha,2.0,5151,3,12189,similarity
8,3,B650,C1050,Beta,Gamma,3.0,6554,3,12189,similarity
9,3,B650,B950,Beta, Beta,3.0,1427,3,12189,similarity
10,3,B650,A50,Beta,Alpha,0.0,2603,3,12189,similarity
11,3,B650,B550,Beta,Beta,5.0,3828,3,12189,similarity
12,3,B650,C1150,Beta,Gamma,3.0,6192,3,12189,similarity
13,3,B650,B850,Beta,Beta,4.0,2059,3,12189,similarity
14,3,B650,A350,Beta,Alpha,2.0,3235,3,12189,similarity
5,4,A450,A150,Alpha,Alpha,0.9999999999999998,3659,3,12189,similarity
6,4,A450,B750,Alpha,Beta,3.0,4803,3,12189,similarity
7,4,A450,A250,Alpha,Alpha,3.0,8989,3,12189,similarity
8,4,A450,C1050,Alpha,Gamma,2.0,29178,3,12189,similarity
9,4,A450,B950,Alpha, Beta,2.0,3872,3,12189,similarity
10,4,A450,A50,Alpha,Alpha,0.0,2434,3,12189,similarity
11,4,A450,B550,Alpha,Beta,5.0,4704,3,12189,similarity
12,4,A450,C1150,Alpha,Gamma,2.0,3259,3,12189,similarity
13,4,A450,B850,Alpha,Beta,3.0,2345,3,12189,similarity
14,4,A450,A350,Alpha,Alpha,5.0,2975,3,12189,similarity
6,5,A150,B750,Alpha,Beta,0.0,9037,3,12189,similarity
7,5,A150,A250,Alpha,Alpha,5.0,5084,3,12189,similarity
8,5,A150,C1050,Alpha,Gamma,0.0,2715,3,12189,similarity
9,5,A150,B950,Alpha, Beta,0.0,823,3,12189,similarity
10,5,A150,A50,Alpha,Alpha,2.0,3438,3,12189,similarity
11,5,A150,B550,Alpha,Beta,0.9999999999999998,2339,3,12189,similarity
12,5,A150,C1150,Alpha,Gamma,0.0,2236,3,12189,similarity
13,5,A150,B850,Alpha,Beta,0.0,2419,3,12189,similarity
14,5,A150,A350,Alpha,Alpha,2.0,3641,3,12189,similarity
7,6,B750,A250,Beta,Alpha,0.9999999999999998,2805,3,12189,similarity
8,6,B750,C1050,Beta,Gamma,4.0,3076,3,12189,similarity
9,6,B750,B950,Beta, Beta,4.0,2137,3,12189,similarity
10,6,B750,A50,Beta,Alpha,0.0,2079,3,12189,similarity
11,6,B750,B550,Beta,Beta,4.0,7343,3,12189,similarity
12,6,B750,C1150,Beta,Gamma,4.0,4995,3,12189,similarity
13,6,B750,B850,Beta,Beta,5.0,2106,3,12189,similarity
14,6,B750,A350,Beta,Alpha,2.0,2893,3,12189,similarity
8,7,A250,C1050,Alpha,Gamma,0.9999999999999998,2638,3,12189,similarity
9,7,A250,B950,Alpha, Beta,0.9999999999999998,2877,3,12189,similarity
10,7,A250,A50,Alpha,Alpha,0.9999999999999998,2788,3,12189,similarity
11,7,A250,B550,Alpha,Beta,2.0,4032,3,12189,similarity
12,7,A250,C1150,Alpha,Gamma,0.9999999999999998,9844,3,12189,similarity
13,7,A250,B850,Alpha,Beta,0.9999999999999998,4079,3,12189,similarity
14,7,A250,A350,Alpha,Alpha,5.0,2644,3,12189,similarity
9,8,C1050,B950,Gamma, Beta,5.0,1387,3,12189,similarity
10,8,C1050,A50,Gamma,Alpha,0.0,2587,3,12189,similarity
11,8,C1050,B550,Gamma,Beta,2.0,6199,3,12189,similarity
12,8,C1050,C1150,Gamma,Gamma,5.0,3230,3,12189,similarity
13,8,C1050,B850,Gamma,Beta,5.0,4529,3,12189,similarity
14,8,C1050,A350,Gamma,Alpha,2.0,4099,3,12189,similarity
10,9,B950,A50, Beta,Alpha,0.0,2135,3,12189,similarity
11,9,B950,B550, Beta,Beta,2.0,7999,3,12189,similarity
12,9,B950,C1150, Beta,Gamma,4.0,9732,3,12189,similarity
13,9,B950,B850, Beta,Beta,5.0,2131,3,12189,similarity
14,9,B950,A350, Beta,Alpha,0.9999999999999998,19739,3,12189,similarity
11,10,A50,B550,Alpha,Beta,0.0,2769,3,12189,similarity
12,10,A50,C1150,Alpha,Gamma,0.0,1171,3,12189,similarity
13,10,A50,B850,Alpha,Beta,0.0,880,3,12189,similarity
14,10,A50,A350,Alpha,Alpha,0.9999999999999998,3285,3,12189,similarity
12,11,B550,C1150,Beta,Gamma,2.0,6839,3,12189,similarity
13,11,B550,B850,Beta,Beta,3.0,2243,3,12189,similarity
14,11,B550,A350,Beta,Alpha,4.0,5792,3,12189,similarity
13,12,C1150,B850,Gamma,Beta,4.0,1566,3,12189,similarity
14,12,C1150,A350,Gamma,Alpha,2.0,3261,3,12189,similarity
14,13,B850,A350,Beta,Alpha,2.0,2730,3,12189,similarity
1,0,B550,A350,Alpha,Alpha,0.0,16154,3,12195,similarity
2,0,B550,B650,Beta,Beta,4.0,4729,3,12195,similarity
3,0,B550,C1150,Beta,Gamma,0.0,4731,3,12195,similarity
4,0,B550,A150,Beta,Alpha,0.0,2331,3,12195,similarity
5,0,B550,B950,Beta, Beta,0.0,5777,3,12195,similarity
6,0,B550,C1450,Beta,Gamma,0.0,2001,3,12195,similarity
7,0,B550,B750,Beta,Beta,4.0,3244,3,12195,similarity
8,0,B550,C1250,Beta,Gamma,0.0,5513,3,12195,similarity
9,0,B550,B850,Beta,Beta,2.0,5787,3,12195,similarity
10,0,B550,A50,Beta,Alpha,0.0,2364,3,12195,similarity
11,0,B550,C1050,Beta,Gamma,2.0,3435,3,12195,similarity
12,0,B550,A450,Beta,Alpha,5.0,3107,3,12195,similarity
13,0,B550,C1350,Beta,Gamma,0.0,3443,3,12195,similarity
14,0,B550,A250,Beta,Alpha,0.9999999999999998,7442,3,12195,similarity
2,1,A350,B650,Alpha,Beta,0.9999999999999998,1935,3,12195,similarity
3,1,A350,C1150,Alpha,Gamma,0.0,4409,3,12195,similarity
4,1,A350,A150,Alpha,Alpha,2.0,8362,3,12195,similarity
5,1,A350,B950,Alpha, Beta,0.9999999999999998,4691,3,12195,similarity
6,1,A350,C1450,Alpha,Gamma,0.9999999999999998,1738,3,12195,similarity
7,1,A350,B750,Alpha,Beta,0.9999999999999998,1470,3,12195,similarity
8,1,A350,C1250,Alpha,Gamma,0.0,2010,3,12195,similarity
9,1,A350,B850,Alpha,Beta,0.0,1347,3,12195,similarity
10,1,A350,A50,Alpha,Alpha,0.0,1859,3,12195,similarity
11,1,A350,C1050,Alpha,Gamma,0.0,2275,3,12195,similarity
12,1,A350,A450,Alpha,Alpha,6.0,2832,3,12195,similarity
13,1,A350,C1350,Alpha,Gamma,0.0,3325,3,12195,similarity
14,1,A350,A250,Alpha,Alpha,6.0,2543,3,12195,similarity
3,2,B650,C1150,Beta,Gamma,2.0,4963,3,12195,similarity
4,2,B650,A150,Beta,Alpha,0.0,2416,3,12195,similarity
5,2,B650,B950,Beta, Beta,6.0,2579,3,12195,similarity
6,2,B650,C1450,Beta,Gamma,0.9999999999999998,4426,3,12195,similarity
7,2,B650,B750,Beta,Beta,6.0,4267,3,12195,similarity
8,2,B650,C1250,Beta,Gamma,0.9999999999999998,4687,3,12195,similarity
9,2,B650,B850,Beta,Beta,5.0,4395,3,12195,similarity
10,2,B650,A50,Beta,Alpha,0.0,2331,3,12195,similarity
11,2,B650,C1050,Beta,Gamma,4.0,2963,3,12195,similarity
12,2,B650,A450,Beta,Alpha,5.0,4163,3,12195,similarity
13,2,B650,C1350,Beta,Gamma,0.9999999999999998,3492,3,12195,similarity
14,2,B650,A250,Beta,Alpha,0.0,2170,3,12195,similarity
4,3,C1150,A150,Gamma,Alpha,0.0,1692,3,12195,similarity
5,3,C1150,B950,Gamma, Beta,6.0,2416,3,12195,similarity
6,3,C1150,C1450,Gamma,Gamma,6.0,1306,3,12195,similarity
7,3,C1150,B750,Gamma,Beta,5.0,3328,3,12195,similarity
8,3,C1150,C1250,Gamma,Gamma,6.0,2635,3,12195,similarity
9,3,C1150,B850,Gamma,Beta,4.0,3515,3,12195,similarity
10,3,C1150,A50,Gamma,Alpha,0.0,2387,3,12195,similarity
11,3,C1150,C1050,Gamma,Gamma,6.0,3634,3,12195,similarity
12,3,C1150,A450,Gamma,Alpha,0.9999999999999998,5515,3,12195,similarity
13,3,C1150,C1350,Gamma,Gamma,6.0,3970,3,12195,similarity
14,3,C1150,A250,Gamma,Alpha,0.0,4586,3,12195,similarity
5,4,A150,B950,Alpha, Beta,0.0,1627,3,12195,similarity
6,4,A150,C1450,Alpha,Gamma,0.0,795,3,12195,similarity
7,4,A150,B750,Alpha,Beta,0.0,756,3,12195,similarity
8,4,A150,C1250,Alpha,Gamma,0.0,750,3,12195,similarity
9,4,A150,B850,Alpha,Beta,0.0,815,3,12195,similarity
10,4,A150,A50,Alpha,Alpha,3.0,5350,3,12195,similarity
11,4,A150,C1050,Alpha,Gamma,0.0,2596,3,12195,similarity
12,4,A150,A450,Alpha,Alpha,0.9999999999999998,6467,3,12195,similarity
13,4,A150,C1350,Alpha,Gamma,0.0,1923,3,12195,similarity
14,4,A150,A250,Alpha,Alpha,5.0,3728,3,12195,similarity
6,5,B950,C1450, Beta,Gamma,4.0,5154,3,12195,similarity
7,5,B950,B750, Beta,Beta,5.0,3699,3,12195,similarity
8,5,B950,C1250, Beta,Gamma,5.0,1362,3,12195,similarity
9,5,B950,B850, Beta,Beta,5.0,707,3,12195,similarity
10,5,B950,A50, Beta,Alpha,0.0,2226,3,12195,similarity
11,5,B950,C1050, Beta,Gamma,6.0,2134,3,12195,similarity
12,5,B950,A450, Beta,Alpha,3.0,3137,3,12195,similarity
13,5,B950,C1350, Beta,Gamma,4.0,4027,3,12195,similarity
14,5,B950,A250, Beta,Alpha,0.9999999999999998,4140,3,12195,similarity
7,6,C1450,B750,Gamma,Beta,0.9999999999999998,1603,3,12195,similarity
8,6,C1450,C1250,Gamma,Gamma,6.0,3023,3,12195,similarity
9,6,C1450,B850,Gamma,Beta,3.0,2148,3,12195,similarity
10,6,C1450,A50,Gamma,Alpha,0.0,1787,3,12195,similarity
11,6,C1450,C1050,Gamma,Gamma,4.0,4588,3,12195,similarity
12,6,C1450,A450,Gamma,Alpha,0.0,4012,3,12195,similarity
13,6,C1450,C1350,Gamma,Gamma,6.0,2399,3,12195,similarity
14,6,C1450,A250,Gamma,Alpha,0.0,5595,3,12195,similarity
8,7,B750,C1250,Beta,Gamma,4.0,3771,3,12195,similarity
9,7,B750,B850,Beta,Beta,6.0,3602,3,12195,similarity
10,7,B750,A50,Beta,Alpha,0.0,2203,3,12195,similarity
11,7,B750,C1050,Beta,Gamma,5.0,3190,3,12195,similarity
12,7,B750,A450,Beta,Alpha,4.0,3187,3,12195,similarity
13,7,B750,C1350,Beta,Gamma,3.0,1834,3,12195,similarity
14,7,B750,A250,Beta,Alpha,0.9999999999999998,2675,3,12195,similarity
9,8,C1250,B850,Gamma,Beta,5.0,2706,3,12195,similarity
10,8,C1250,A50,Gamma,Alpha,0.0,2012,3,12195,similarity
11,8,C1250,C1050,Gamma,Gamma,6.0,2747,3,12195,similarity
12,8,C1250,A450,Gamma,Alpha,0.9999999999999998,4707,3,12195,similarity
13,8,C1250,C1350,Gamma,Gamma,6.0,2731,3,12195,similarity
14,8,C1250,A250,Gamma,Alpha,0.0,2531,3,12195,similarity
10,9,B850,A50,Beta,Alpha,0.0,1163,3,12195,similarity
11,9,B850,C1050,Beta,Gamma,6.0,2267,3,12195,similarity
12,9,B850,A450,Beta,Alpha,0.9999999999999998,5456,3,12195,similarity
13,9,B850,C1350,Beta,Gamma,4.0,2355,3,12195,similarity
14,9,B850,A250,Beta,Alpha,0.9999999999999998,1851,3,12195,similarity
11,10,A50,C1050,Alpha,Gamma,0.0,1563,3,12195,similarity
12,10,A50,A450,Alpha,Alpha,0.0,1474,3,12195,similarity
13,10,A50,C1350,Alpha,Gamma,0.0,908,3,12195,similarity
14,10,A50,A250,Alpha,Alpha,0.0,4695,3,12195,similarity
12,11,C1050,A450,Gamma,Alpha,4.0,2340,3,12195,similarity
13,11,C1050,C1350,Gamma,Gamma,5.0,5396,3,12195,similarity
14,11,C1050,A250,Gamma,Alpha,0.0,5253,3,12195,similarity
13,12,A450,C1350,Alpha,Gamma,0.9999999999999998,2386,3,12195,similarity
14,12,A450,A250,Alpha,Alpha,5.0,2211,3,12195,similarity
14,13,C1350,A250,Gamma,Alpha,0.0,2786,3,12195,similarity
1,0,B850,A50,Alpha,Alpha,0.0,4911,3,12198,similarity
2,0,B850,B650,Beta,Beta,4.0,6791,3,12198,similarity
3,0,B850,B550,Beta,Beta,4.0,2377,3,12198,similarity
4,0,B850,C1450,Beta,Gamma,2.0,3059,3,12198,similarity
5,0,B850,B950,Beta, Beta,5.0,5404,3,12198,similarity
6,0,B850,B750,Beta,Beta,4.0,4132,3,12198,similarity
7,0,B850,A450,Beta,Alpha,2.0,2418,3,12198,similarity
8,0,B850,A350,Beta,Alpha,2.0,2563,3,12198,similarity
9,0,B850,C1050,Beta,Gamma,5.0,6163,3,12198,similarity
10,0,B850,A250,Beta,Alpha,0.9999999999999998,3050,3,12198,similarity
11,0,B850,C1150,Beta,Gamma,4.0,5914,3,12198,similarity
12,0,B850,A150,Beta,Alpha,0.0,2824,3,12198,similarity
13,0,B850,C1250,Beta,Gamma,4.0,5821,3,12198,similarity
14,0,B850,C1350,Beta,Gamma,4.0,4764,3,12198,similarity
2,1,A50,B650,Alpha,Beta,0.0,2011,3,12198,similarity
3,1,A50,B550,Alpha,Beta,0.9999999999999998,3844,3,12198,similarity
4,1,A50,C1450,Alpha,Gamma,0.0,4541,3,12198,similarity
5,1,A50,B950,Alpha, Beta,0.0,1134,3,12198,similarity
6,1,A50,B750,Alpha,Beta,0.9999999999999998,2288,3,12198,similarity
7,1,A50,A450,Alpha,Alpha,2.0,1934,3,12198,similarity
8,1,A50,A350,Alpha,Alpha,2.0,2002,3,12198,similarity
9,1,A50,C1050,Alpha,Gamma,0.0,1882,3,12198,similarity
10,1,A50,A250,Alpha,Alpha,3.0,2280,3,12198,similarity
11,1,A50,C1150,Alpha,Gamma,0.0,1716,3,12198,similarity
12,1,A50,A150,Alpha,Alpha,4.0,2514,3,12198,similarity
13,1,A50,C1250,Alpha,Gamma,0.0,1913,3,12198,similarity
14,1,A50,C1350,Alpha,Gamma,0.0,1587,3,12198,similarity
3,2,B650,B550,Beta,Beta,4.0,2515,3,12198,similarity
4,2,B650,C1450,Beta,Gamma,2.0,4660,3,12198,similarity
5,2,B650,B950,Beta, Beta,4.0,7417,3,12198,similarity
6,2,B650,B750,Beta,Beta,5.0,2132,3,12198,similarity
7,2,B650,A450,Beta,Alpha,4.0,3187,3,12198,similarity
8,2,B650,A350,Beta,Alpha,3.0,2608,3,12198,similarity
9,2,B650,C1050,Beta,Gamma,4.0,1788,3,12198,similarity
10,2,B650,A250,Beta,Alpha,2.0,1818,3,12198,similarity
11,2,B650,C1150,Beta,Gamma,3.0,1851,3,12198,similarity
12,2,B650,A150,Beta,Alpha,0.9999999999999998,2787,3,12198,similarity
13,2,B650,C1250,Beta,Gamma,2.0,4355,3,12198,similarity
14,2,B650,C1350,Beta,Gamma,0.9999999999999998,2242,3,12198,similarity
4,3,B550,C1450,Beta,Gamma,0.9999999999999998,1728,3,12198,similarity
5,3,B550,B950,Beta, Beta,2.0,3327,3,12198,similarity
6,3,B550,B750,Beta,Beta,4.0,1963,3,12198,similarity
7,3,B550,A450,Beta,Alpha,5.0,2467,3,12198,similarity
8,3,B550,A350,Beta,Alpha,4.0,1579,3,12198,similarity
9,3,B550,C1050,Beta,Gamma,4.0,1275,3,12198,similarity
10,3,B550,A250,Beta,Alpha,3.0,3315,3,12198,similarity
11,3,B550,C1150,Beta,Gamma,2.0,2742,3,12198,similarity
12,3,B550,A150,Beta,Alpha,0.9999999999999998,1836,3,12198,similarity
13,3,B550,C1250,Beta,Gamma,2.0,3247,3,12198,similarity
14,3,B550,C1350,Beta,Gamma,0.9999999999999998,1813,3,12198,similarity
5,4,C1450,B950,Gamma, Beta,3.0,2171,3,12198,similarity
6,4,C1450,B750,Gamma,Beta,2.0,1380,3,12198,similarity
7,4,C1450,A450,Gamma,Alpha,0.9999999999999998,3507,3,12198,similarity
8,4,C1450,A350,Gamma,Alpha,0.9999999999999998,1188,3,12198,similarity
9,4,C1450,C1050,Gamma,Gamma,2.0,2306,3,12198,similarity
10,4,C1450,A250,Gamma,Alpha,0.9999999999999998,1460,3,12198,similarity
11,4,C1450,C1150,Gamma,Gamma,0.9999999999999998,3483,3,12198,similarity
12,4,C1450,A150,Gamma,Alpha,0.0,4457,3,12198,similarity
13,4,C1450,C1250,Gamma,Gamma,4.0,3330,3,12198,similarity
14,4,C1450,C1350,Gamma,Gamma,6.0,3134,3,12198,similarity
6,5,B950,B750, Beta,Beta,4.0,2002,3,12198,similarity
7,5,B950,A450, Beta,Alpha,2.0,1748,3,12198,similarity
8,5,B950,A350, Beta,Alpha,2.0,1354,3,12198,similarity
9,5,B950,C1050, Beta,Gamma,5.0,1984,3,12198,similarity
10,5,B950,A250, Beta,Alpha,2.0,2570,3,12198,similarity
11,5,B950,C1150, Beta,Gamma,5.0,4103,3,12198,similarity
12,5,B950,A150, Beta,Alpha,0.9999999999999998,3515,3,12198,similarity
13,5,B950,C1250, Beta,Gamma,4.0,4372,3,12198,similarity
14,5,B950,C1350, Beta,Gamma,4.0,2035,3,12198,similarity
7,6,B750,A450,Beta,Alpha,3.0,1522,3,12198,similarity
8,6,B750,A350,Beta,Alpha,2.0,1986,3,12198,similarity
9,6,B750,C1050,Beta,Gamma,4.0,3339,3,12198,similarity
10,6,B750,A250,Beta,Alpha,2.0,1811,3,12198,similarity
11,6,B750,C1150,Beta,Gamma,3.0,2570,3,12198,similarity
12,6,B750,A150,Beta,Alpha,0.9999999999999998,2728,3,12198,similarity
13,6,B750,C1250,Beta,Gamma,3.0,3234,3,12198,similarity
14,6,B750,C1350,Beta,Gamma,3.0,5370,3,12198,similarity
8,7,A450,A350,Alpha,Alpha,5.0,1944,3,12198,similarity
9,7,A450,C1050,Alpha,Gamma,3.0,2303,3,12198,similarity
10,7,A450,A250,Alpha,Alpha,4.0,1826,3,12198,similarity
11,7,A450,C1150,Alpha,Gamma,3.0,1516,3,12198,similarity
12,7,A450,A150,Alpha,Alpha,2.0,1745,3,12198,similarity
13,7,A450,C1250,Alpha,Gamma,2.0,2339,3,12198,similarity
14,7,A450,C1350,Alpha,Gamma,0.9999999999999998,2758,3,12198,similarity
9,8,A350,C1050,Alpha,Gamma,2.0,3392,3,12198,similarity
10,8,A350,A250,Alpha,Alpha,4.0,2992,3,12198,similarity
11,8,A350,C1150,Alpha,Gamma,2.0,2361,3,12198,similarity
12,8,A350,A150,Alpha,Alpha,4.0,3571,3,12198,similarity
13,8,A350,C1250,Alpha,Gamma,2.0,1478,3,12198,similarity
14,8,A350,C1350,Alpha,Gamma,0.9999999999999998,2018,3,12198,similarity
10,9,C1050,A250,Gamma,Alpha,0.9999999999999998,2666,3,12198,similarity
11,9,C1050,C1150,Gamma,Gamma,6.0,3579,3,12198,similarity
12,9,C1050,A150,Gamma,Alpha,0.0,1747,3,12198,similarity
13,9,C1050,C1250,Gamma,Gamma,6.0,2001,3,12198,similarity
14,9,C1050,C1350,Gamma,Gamma,6.0,2796,3,12198,similarity
11,10,A250,C1150,Alpha,Gamma,2.0,1891,3,12198,similarity
12,10,A250,A150,Alpha,Alpha,5.0,2084,3,12198,similarity
13,10,A250,C1250,Alpha,Gamma,2.0,1692,3,12198,similarity
14,10,A250,C1350,Alpha,Gamma,2.0,2009,3,12198,similarity
12,11,C1150,A150,Gamma,Alpha,0.9999999999999998,2522,3,12198,similarity
13,11,C1150,C1250,Gamma,Gamma,6.0,3236,3,12198,similarity
14,11,C1150,C1350,Gamma,Gamma,6.0,1169,3,12198,similarity
13,12,A150,C1250,Alpha,Gamma,0.9999999999999998,2267,3,12198,similarity
14,12,A150,C1350,Alpha,Gamma,0.9999999999999998,868,3,12198,similarity
14,13,C1250,C1350,Gamma,Gamma,6.0,2388,3,12198,similarity
1,0,C1250,C1350,Gamma,Gamma,4.0,6446,3,12201,similarity
2,0,C1250,B950,Gamma, Beta,4.0,2969,3,12201,similarity
3,0,C1250,C1050,Gamma,Gamma,3.0,6124,3,12201,similarity
4,0,C1250,B650,Gamma,Beta,0.9999999999999998,4027,3,12201,similarity
5,0,C1250,A350,Gamma,Alpha,0.9999999999999998,1539,3,12201,similarity
6,0,C1250,A250,Gamma,Alpha,0.0,2715,3,12201,similarity
7,0,C1250,B550,Gamma,Beta,0.0,1651,3,12201,similarity
8,0,C1250,C1150,Gamma,Gamma,4.0,1822,3,12201,similarity
9,0,C1250,A150,Gamma,Alpha,0.0,2536,3,12201,similarity
10,0,C1250,A450,Gamma,Alpha,2.0,2898,3,12201,similarity
11,0,C1250,A50,Gamma,Alpha,0.0,1723,3,12201,similarity
12,0,C1250,B850,Gamma,Beta,4.0,3171,3,12201,similarity
13,0,C1250,B750,Gamma,Beta,4.0,1378,3,12201,similarity
14,0,C1250,C1450,Gamma,Gamma,5.0,2550,3,12201,similarity
2,1,C1350,B950,Gamma, Beta,4.0,5423,3,12201,similarity
3,1,C1350,C1050,Gamma,Gamma,4.0,1177,3,12201,similarity
4,1,C1350,B650,Gamma,Beta,3.0,3529,3,12201,similarity
5,1,C1350,A350,Gamma,Alpha,2.0,1714,3,12201,similarity
6,1,C1350,A250,Gamma,Alpha,2.0,1011,3,12201,similarity
7,1,C1350,B550,Gamma,Beta,3.0,2400,3,12201,similarity
8,1,C1350,C1150,Gamma,Gamma,4.0,1595,3,12201,similarity
9,1,C1350,A150,Gamma,Alpha,0.9999999999999998,1903,3,12201,similarity
10,1,C1350,A450,Gamma,Alpha,0.9999999999999998,1139,3,12201,similarity
11,1,C1350,A50,Gamma,Alpha,0.0,1333,3,12201,similarity
12,1,C1350,B850,Gamma,Beta,5.0,2106,3,12201,similarity
13,1,C1350,B750,Gamma,Beta,4.0,1610,3,12201,similarity
14,1,C1350,C1450,Gamma,Gamma,6.0,3395,3,12201,similarity
3,2,B950,C1050, Beta,Gamma,5.0,3251,3,12201,similarity
4,2,B950,B650, Beta,Beta,4.0,4111,3,12201,similarity
5,2,B950,A350, Beta,Alpha,2.0,3123,3,12201,similarity
6,2,B950,A250, Beta,Alpha,2.0,883,3,12201,similarity
7,2,B950,B550, Beta,Beta,3.0,2082,3,12201,similarity
8,2,B950,C1150, Beta,Gamma,3.0,1955,3,12201,similarity
9,2,B950,A150, Beta,Alpha,0.9999999999999998,4162,3,12201,similarity
10,2,B950,A450, Beta,Alpha,2.0,3878,3,12201,similarity
11,2,B950,A50, Beta,Alpha,0.0,2086,3,12201,similarity
12,2,B950,B850, Beta,Beta,4.0,2372,3,12201,similarity
13,2,B950,B750, Beta,Beta,4.0,1577,3,12201,similarity
14,2,B950,C1450, Beta,Gamma,3.0,2162,3,12201,similarity
4,3,C1050,B650,Gamma,Beta,3.0,1476,3,12201,similarity
5,3,C1050,A350,Gamma,Alpha,3.0,730,3,12201,similarity
6,3,C1050,A250,Gamma,Alpha,2.0,1594,3,12201,similarity
7,3,C1050,B550,Gamma,Beta,3.0,4396,3,12201,similarity
8,3,C1050,C1150,Gamma,Gamma,5.0,2987,3,12201,similarity
9,3,C1050,A150,Gamma,Alpha,0.0,2249,3,12201,similarity
10,3,C1050,A450,Gamma,Alpha,0.9999999999999998,1771,3,12201,similarity
11,3,C1050,A50,Gamma,Alpha,0.0,1378,3,12201,similarity
12,3,C1050,B850,Gamma,Beta,4.0,2019,3,12201,similarity
13,3,C1050,B750,Gamma,Beta,4.0,1069,3,12201,similarity
14,3,C1050,C1450,Gamma,Gamma,3.0,4514,3,12201,similarity
5,4,B650,A350,Beta,Alpha,3.0,1604,3,12201,similarity
6,4,B650,A250,Beta,Alpha,3.0,1627,3,12201,similarity
7,4,B650,B550,Beta,Beta,5.0,2288,3,12201,similarity
8,4,B650,C1150,Beta,Gamma,2.0,3980,3,12201,similarity
9,4,B650,A150,Beta,Alpha,2.0,1371,3,12201,similarity
10,4,B650,A450,Beta,Alpha,4.0,1921,3,12201,similarity
11,4,B650,A50,Beta,Alpha,0.9999999999999998,1755,3,12201,similarity
12,4,B650,B850,Beta,Beta,3.0,2873,3,12201,similarity
13,4,B650,B750,Beta,Beta,4.0,2396,3,12201,similarity
14,4,B650,C1450,Beta,Gamma,0.9999999999999998,3088,3,12201,similarity
6,5,A350,A250,Alpha,Alpha,4.0,2060,3,12201,similarity
7,5,A350,B550,Alpha,Beta,4.0,1753,3,12201,similarity
8,5,A350,C1150,Alpha,Gamma,2.0,2052,3,12201,similarity
9,5,A350,A150,Alpha,Alpha,4.0,1939,3,12201,similarity
10,5,A350,A450,Alpha,Alpha,4.0,1066,3,12201,similarity
11,5,A350,A50,Alpha,Alpha,2.0,1940,3,12201,similarity
12,5,A350,B850,Alpha,Beta,2.0,4323,3,12201,similarity
13,5,A350,B750,Alpha,Beta,2.0,1019,3,12201,similarity
14,5,A350,C1450,Alpha,Gamma,0.9999999999999998,2130,3,12201,similarity
7,6,A250,B550,Alpha,Beta,2.0,2211,3,12201,similarity
8,6,A250,C1150,Alpha,Gamma,2.0,2835,3,12201,similarity
9,6,A250,A150,Alpha,Alpha,4.0,1965,3,12201,similarity
10,6,A250,A450,Alpha,Alpha,3.0,2946,3,12201,similarity
11,6,A250,A50,Alpha,Alpha,2.0,2149,3,12201,similarity
12,6,A250,B850,Alpha,Beta,2.0,1042,3,12201,similarity
13,6,A250,B750,Alpha,Beta,2.0,516,3,12201,similarity
14,6,A250,C1450,Alpha,Gamma,0.9999999999999998,3256,3,12201,similarity
8,7,B550,C1150,Beta,Gamma,3.0,8229,3,12201,similarity
9,7,B550,A150,Beta,Alpha,3.0,929,3,12201,similarity
10,7,B550,A450,Beta,Alpha,5.0,3857,3,12201,similarity
11,7,B550,A50,Beta,Alpha,0.9999999999999998,2011,3,12201,similarity
12,7,B550,B850,Beta,Beta,3.0,3083,3,12201,similarity
13,7,B550,B750,Beta,Beta,3.0,720,3,12201,similarity
14,7,B550,C1450,Beta,Gamma,3.0,531,3,12201,similarity
9,8,C1150,A150,Gamma,Alpha,2.0,3331,3,12201,similarity
10,8,C1150,A450,Gamma,Alpha,2.0,1130,3,12201,similarity
11,8,C1150,A50,Gamma,Alpha,0.0,2114,3,12201,similarity
12,8,C1150,B850,Gamma,Beta,4.0,2074,3,12201,similarity
13,8,C1150,B750,Gamma,Beta,4.0,556,3,12201,similarity
14,8,C1150,C1450,Gamma,Gamma,5.0,1791,3,12201,similarity
10,9,A150,A450,Alpha,Alpha,2.0,1899,3,12201,similarity
11,9,A150,A50,Alpha,Alpha,4.0,2067,3,12201,similarity
12,9,A150,B850,Alpha,Beta,0.9999999999999998,6554,3,12201,similarity
13,9,A150,B750,Alpha,Beta,0.9999999999999998,1203,3,12201,similarity
14,9,A150,C1450,Alpha,Gamma,0.0,4907,3,12201,similarity
11,10,A450,A50,Alpha,Alpha,0.9999999999999998,2113,3,12201,similarity
12,10,A450,B850,Alpha,Beta,3.0,3283,3,12201,similarity
13,10,A450,B750,Alpha,Beta,3.0,905,3,12201,similarity
14,10,A450,C1450,Alpha,Gamma,0.9999999999999998,2826,3,12201,similarity
12,11,A50,B850,Alpha,Beta,0.9999999999999998,1924,3,12201,similarity
13,11,A50,B750,Alpha,Beta,0.0,1783,3,12201,similarity
14,11,A50,C1450,Alpha,Gamma,0.0,779,3,12201,similarity
13,12,B850,B750,Beta,Beta,5.0,2234,3,12201,similarity
14,12,B850,C1450,Beta,Gamma,3.0,2563,3,12201,similarity
14,13,B750,C1450,Beta,Gamma,2.0,1363,3,12201,similarity
1,0,A150,A450,Alpha,Alpha,0.9999999999999998,10649,3,12135,similarity
2,0,A150,C1450,Alpha,Gamma,0.0,2880,3,12135,similarity
3,0,A150,B750,Alpha,Beta,0.0,3010,3,12135,similarity
4,0,A150,B550,Alpha,Beta,0.9999999999999998,3235,3,12135,similarity
5,0,A150,A350,Alpha,Alpha,4.0,4331,3,12135,similarity
6,0,A150,C1050,Alpha,Gamma,0.0,6505,3,12135,similarity
7,0,A150,C1150,Alpha,Gamma,0.0,2410,3,12135,similarity
8,0,A150,A250,Alpha,Alpha,5.0,4987,3,12135,similarity
9,0,A150,B950,Alpha, Beta,0.0,4779,3,12135,similarity
10,0,A150,B650,Alpha,Beta,0.9999999999999998,6458,3,12135,similarity
11,0,A150,C1250,Alpha,Gamma,0.0,2340,3,12135,similarity
12,0,A150,B850,Alpha,Beta,2.0,8483,3,12135,similarity
13,0,A150,C1350,Alpha,Gamma,0.0,2888,3,12135,similarity
14,0,A150,A50,Alpha,Alpha,5.0,9067,3,12135,similarity
2,1,A450,C1450,Alpha,Gamma,4.0,4994,3,12135,similarity
3,1,A450,B750,Alpha,Beta,5.0,5146,3,12135,similarity
4,1,A450,B550,Alpha,Beta,6.0,3498,3,12135,similarity
5,1,A450,A350,Alpha,Alpha,6.0,2717,3,12135,similarity
6,1,A450,C1050,Alpha,Gamma,2.0,6876,3,12135,similarity
7,1,A450,C1150,Alpha,Gamma,0.9999999999999998,10699,3,12135,similarity
8,1,A450,A250,Alpha,Alpha,4.0,12827,3,12135,similarity
9,1,A450,B950,Alpha, Beta,0.9999999999999998,10658,3,12135,similarity
10,1,A450,B650,Alpha,Beta,4.0,6202,3,12135,similarity
11,1,A450,C1250,Alpha,Gamma,0.9999999999999998,5585,3,12135,similarity
12,1,A450,B850,Alpha,Beta,2.0,3033,3,12135,similarity
13,1,A450,C1350,Alpha,Gamma,0.9999999999999998,2627,3,12135,similarity
14,1,A450,A50,Alpha,Alpha,2.0,15858,3,12135,similarity
3,2,C1450,B750,Gamma,Beta,3.0,15347,3,12135,similarity
4,2,C1450,B550,Gamma,Beta,4.0,2834,3,12135,similarity
5,2,C1450,A350,Gamma,Alpha,0.9999999999999998,7411,3,12135,similarity
6,2,C1450,C1050,Gamma,Gamma,5.0,5410,3,12135,similarity
7,2,C1450,C1150,Gamma,Gamma,5.0,5226,3,12135,similarity
8,2,C1450,A250,Gamma,Alpha,0.9999999999999998,5281,3,12135,similarity
9,2,C1450,B950,Gamma, Beta,4.0,6242,3,12135,similarity
10,2,C1450,B650,Gamma,Beta,3.0,2561,3,12135,similarity
11,2,C1450,C1250,Gamma,Gamma,6.0,3531,3,12135,similarity
12,2,C1450,B850,Gamma,Beta,5.0,4475,3,12135,similarity
13,2,C1450,C1350,Gamma,Gamma,6.0,2020,3,12135,similarity
14,2,C1450,A50,Gamma,Alpha,0.0,3434,3,12135,similarity
4,3,B750,B550,Beta,Beta,3.0,7043,3,12135,similarity
5,3,B750,A350,Beta,Alpha,2.0,2878,3,12135,similarity
6,3,B750,C1050,Beta,Gamma,4.0,5259,3,12135,similarity
7,3,B750,C1150,Beta,Gamma,4.0,2255,3,12135,similarity
8,3,B750,A250,Beta,Alpha,2.0,3668,3,12135,similarity
9,3,B750,B950,Beta, Beta,5.0,3091,3,12135,similarity
10,3,B750,B650,Beta,Beta,6.0,6731,3,12135,similarity
11,3,B750,C1250,Beta,Gamma,4.0,2707,3,12135,similarity
12,3,B750,B850,Beta,Beta,6.0,2723,3,12135,similarity
13,3,B750,C1350,Beta,Gamma,4.0,6347,3,12135,similarity
14,3,B750,A50,Beta,Alpha,0.9999999999999998,2195,3,12135,similarity
5,4,B550,A350,Beta,Alpha,2.0,10370,3,12135,similarity
6,4,B550,C1050,Beta,Gamma,0.9999999999999998,4371,3,12135,similarity
7,4,B550,C1150,Beta,Gamma,0.9999999999999998,5620,3,12135,similarity
8,4,B550,A250,Beta,Alpha,2.0,4113,3,12135,similarity
9,4,B550,B950,Beta, Beta,2.0,12090,3,12135,similarity
10,4,B550,B650,Beta,Beta,5.0,4044,3,12135,similarity
11,4,B550,C1250,Beta,Gamma,0.9999999999999998,5836,3,12135,similarity
12,4,B550,B850,Beta,Beta,2.0,9546,3,12135,similarity
13,4,B550,C1350,Beta,Gamma,0.9999999999999998,4321,3,12135,similarity
14,4,B550,A50,Beta,Alpha,0.0,7835,3,12135,similarity
6,5,A350,C1050,Alpha,Gamma,0.0,3907,3,12135,similarity
7,5,A350,C1150,Alpha,Gamma,0.9999999999999998,3818,3,12135,similarity
8,5,A350,A250,Alpha,Alpha,5.0,5040,3,12135,similarity
9,5,A350,B950,Alpha, Beta,3.0,5459,3,12135,similarity
10,5,A350,B650,Alpha,Beta,2.0,7345,3,12135,similarity
11,5,A350,C1250,Alpha,Gamma,0.9999999999999998,7388,3,12135,similarity
12,5,A350,B850,Alpha,Beta,2.0,2139,3,12135,similarity
13,5,A350,C1350,Alpha,Gamma,0.9999999999999998,3521,3,12135,similarity
14,5,A350,A50,Alpha,Alpha,2.0,4258,3,12135,similarity
7,6,C1050,C1150,Gamma,Gamma,6.0,3771,3,12135,similarity
8,6,C1050,A250,Gamma,Alpha,0.9999999999999998,9605,3,12135,similarity
9,6,C1050,B950,Gamma, Beta,5.0,4770,3,12135,similarity
10,6,C1050,B650,Gamma,Beta,4.0,3666,3,12135,similarity
11,6,C1050,C1250,Gamma,Gamma,5.0,2091,3,12135,similarity
12,6,C1050,B850,Gamma,Beta,5.0,2015,3,12135,similarity
13,6,C1050,C1350,Gamma,Gamma,5.0,2082,3,12135,similarity
14,6,C1050,A50,Gamma,Alpha,0.0,3194,3,12135,similarity
8,7,C1150,A250,Gamma,Alpha,0.9999999999999998,2532,3,12135,similarity
9,7,C1150,B950,Gamma, Beta,5.0,3020,3,12135,similarity
10,7,C1150,B650,Gamma,Beta,4.0,2266,3,12135,similarity
11,7,C1150,C1250,Gamma,Gamma,6.0,2787,3,12135,similarity
12,7,C1150,B850,Gamma,Beta,5.0,4023,3,12135,similarity
13,7,C1150,C1350,Gamma,Gamma,6.0,2243,3,12135,similarity
14,7,C1150,A50,Gamma,Alpha,0.0,2606,3,12135,similarity
9,8,A250,B950,Alpha, Beta,2.0,4883,3,12135,similarity
10,8,A250,B650,Alpha,Beta,3.0,2369,3,12135,similarity
11,8,A250,C1250,Alpha,Gamma,0.9999999999999998,3507,3,12135,similarity
12,8,A250,B850,Alpha,Beta,2.0,2090,3,12135,similarity
13,8,A250,C1350,Alpha,Gamma,0.9999999999999998,2578,3,12135,similarity
14,8,A250,A50,Alpha,Alpha,3.0,4481,3,12135,similarity
10,9,B950,B650, Beta,Beta,4.0,9020,3,12135,similarity
11,9,B950,C1250, Beta,Gamma,5.0,2442,3,12135,similarity
12,9,B950,B850, Beta,Beta,6.0,2346,3,12135,similarity
13,9,B950,C1350, Beta,Gamma,5.0,2235,3,12135,similarity
14,9,B950,A50, Beta,Alpha,0.0,3915,3,12135,similarity
11,10,B650,C1250,Beta,Gamma,3.0,2539,3,12135,similarity
12,10,B650,B850,Beta,Beta,3.0,1394,3,12135,similarity
13,10,B650,C1350,Beta,Gamma,2.0,4587,3,12135,similarity
14,10,B650,A50,Beta,Alpha,0.0,3003,3,12135,similarity
12,11,C1250,B850,Gamma,Beta,4.0,3747,3,12135,similarity
13,11,C1250,C1350,Gamma,Gamma,6.0,2115,3,12135,similarity
14,11,C1250,A50,Gamma,Alpha,0.0,2433,3,12135,similarity
13,12,B850,C1350,Beta,Gamma,4.0,6820,3,12135,similarity
14,12,B850,A50,Beta,Alpha,0.0,2724,3,12135,similarity
14,13,C1350,A50,Gamma,Alpha,0.0,1771,3,12135,similarity
1,0,A250,A450,Alpha,Alpha,0.0,6464,3,12217,similarity
2,0,A250,B950,Alpha, Beta,0.0,1356,3,12217,similarity
3,0,A250,A150,Alpha,Alpha,0.0,1439,3,12217,similarity
4,0,A250,B650,Alpha,Beta,0.0,596,3,12217,similarity
5,0,A250,A350,Alpha,Alpha,0.0,702,3,12217,similarity
6,0,A250,B550,Alpha,Beta,0.0,648,3,12217,similarity
7,0,A250,C1450,Alpha,Gamma,0.0,609,3,12217,similarity
8,0,A250,C1150,Alpha,Gamma,0.0,492,3,12217,similarity
9,0,A250,C1050,Alpha,Gamma,0.0,415,3,12217,similarity
10,0,A250,A50,Alpha,Alpha,0.0,407,3,12217,similarity
11,0,A250,C1350,Alpha,Gamma,0.0,932,3,12217,similarity
12,0,A250,B850,Alpha,Beta,0.0,552,3,12217,similarity
13,0,A250,C1250,Alpha,Gamma,0.0,1641,3,12217,similarity
14,0,A250,B750,Alpha,Beta,0.0,750,3,12217,similarity
2,1,A450,B950,Alpha, Beta,0.0,799,3,12217,similarity
3,1,A450,A150,Alpha,Alpha,0.0,813,3,12217,similarity
4,1,A450,B650,Alpha,Beta,0.0,572,3,12217,similarity
5,1,A450,A350,Alpha,Alpha,0.9999999999999998,4164,3,12217,similarity
6,1,A450,B550,Alpha,Beta,0.9999999999999998,1364,3,12217,similarity
7,1,A450,C1450,Alpha,Gamma,0.0,2083,3,12217,similarity
8,1,A450,C1150,Alpha,Gamma,0.0,584,3,12217,similarity
9,1,A450,C1050,Alpha,Gamma,0.0,388,3,12217,similarity
10,1,A450,A50,Alpha,Alpha,0.0,860,3,12217,similarity
11,1,A450,C1350,Alpha,Gamma,0.0,556,3,12217,similarity
12,1,A450,B850,Alpha,Beta,0.0,477,3,12217,similarity
13,1,A450,C1250,Alpha,Gamma,0.0,423,3,12217,similarity
14,1,A450,B750,Alpha,Beta,0.0,606,3,12217,similarity
3,2,B950,A150, Beta,Alpha,0.0,805,3,12217,similarity
4,2,B950,B650, Beta,Beta,0.0,691,3,12217,similarity
5,2,B950,A350, Beta,Alpha,0.0,559,3,12217,similarity
6,2,B950,B550, Beta,Beta,0.0,593,3,12217,similarity
7,2,B950,C1450, Beta,Gamma,0.0,619,3,12217,similarity
8,2,B950,C1150, Beta,Gamma,0.0,441,3,12217,similarity
9,2,B950,C1050, Beta,Gamma,0.0,813,3,12217,similarity
10,2,B950,A50, Beta,Alpha,0.0,884,3,12217,similarity
11,2,B950,C1350, Beta,Gamma,0.0,737,3,12217,similarity
12,2,B950,B850, Beta,Beta,0.0,596,3,12217,similarity
13,2,B950,C1250, Beta,Gamma,0.0,746,3,12217,similarity
14,2,B950,B750, Beta,Beta,0.9999999999999998,2261,3,12217,similarity
4,3,A150,B650,Alpha,Beta,0.0,1450,3,12217,similarity
5,3,A150,A350,Alpha,Alpha,0.0,781,3,12217,similarity
6,3,A150,B550,Alpha,Beta,0.0,890,3,12217,similarity
7,3,A150,C1450,Alpha,Gamma,0.0,662,3,12217,similarity
8,3,A150,C1150,Alpha,Gamma,0.0,397,3,12217,similarity
9,3,A150,C1050,Alpha,Gamma,0.0,460,3,12217,similarity
10,3,A150,A50,Alpha,Alpha,0.0,1864,3,12217,similarity
11,3,A150,C1350,Alpha,Gamma,0.0,503,3,12217,similarity
12,3,A150,B850,Alpha,Beta,0.0,451,3,12217,similarity
13,3,A150,C1250,Alpha,Gamma,0.0,391,3,12217,similarity
14,3,A150,B750,Alpha,Beta,0.0,374,3,12217,similarity
5,4,B650,A350,Beta,Alpha,0.0,772,3,12217,similarity
6,4,B650,B550,Beta,Beta,0.9999999999999998,3056,3,12217,similarity
7,4,B650,C1450,Beta,Gamma,0.0,2003,3,12217,similarity
8,4,B650,C1150,Beta,Gamma,0.0,367,3,12217,similarity
9,4,B650,C1050,Beta,Gamma,0.0,408,3,12217,similarity
10,4,B650,A50,Beta,Alpha,0.0,762,3,12217,similarity
11,4,B650,C1350,Beta,Gamma,0.0,426,3,12217,similarity
12,4,B650,B850,Beta,Beta,0.0,359,3,12217,similarity
13,4,B650,C1250,Beta,Gamma,0.0,472,3,12217,similarity
14,4,B650,B750,Beta,Beta,0.0,916,3,12217,similarity
6,5,A350,B550,Alpha,Beta,0.0,785,3,12217,similarity
7,5,A350,C1450,Alpha,Gamma,0.0,536,3,12217,similarity
8,5,A350,C1150,Alpha,Gamma,0.0,446,3,12217,similarity
9,5,A350,C1050,Alpha,Gamma,0.0,399,3,12217,similarity
10,5,A350,A50,Alpha,Alpha,0.0,389,3,12217,similarity
11,5,A350,C1350,Alpha,Gamma,0.0,493,3,12217,similarity
12,5,A350,B850,Alpha,Beta,0.0,777,3,12217,similarity
13,5,A350,C1250,Alpha,Gamma,0.0,634,3,12217,similarity
14,5,A350,B750,Alpha,Beta,0.0,417,3,12217,similarity
7,6,B550,C1450,Beta,Gamma,0.0,439,3,12217,similarity
8,6,B550,C1150,Beta,Gamma,0.0,411,3,12217,similarity
9,6,B550,C1050,Beta,Gamma,0.0,395,3,12217,similarity
10,6,B550,A50,Beta,Alpha,0.0,625,3,12217,similarity
11,6,B550,C1350,Beta,Gamma,0.0,417,3,12217,similarity
12,6,B550,B850,Beta,Beta,0.0,384,3,12217,similarity
13,6,B550,C1250,Beta,Gamma,0.0,488,3,12217,similarity
14,6,B550,B750,Beta,Beta,0.0,452,3,12217,similarity
8,7,C1450,C1150,Gamma,Gamma,0.0,488,3,12217,similarity
9,7,C1450,C1050,Gamma,Gamma,0.0,436,3,12217,similarity
10,7,C1450,A50,Gamma,Alpha,0.0,425,3,12217,similarity
11,7,C1450,C1350,Gamma,Gamma,4.0,4391,3,12217,similarity
12,7,C1450,B850,Gamma,Beta,0.0,4802,3,12217,similarity
13,7,C1450,C1250,Gamma,Gamma,0.0,397,3,12217,similarity
14,7,C1450,B750,Gamma,Beta,0.0,564,3,12217,similarity
9,8,C1150,C1050,Gamma,Gamma,0.0,996,3,12217,similarity
10,8,C1150,A50,Gamma,Alpha,0.0,844,3,12217,similarity
11,8,C1150,C1350,Gamma,Gamma,0.0,1707,3,12217,similarity
12,8,C1150,B850,Gamma,Beta,0.0,898,3,12217,similarity
13,8,C1150,C1250,Gamma,Gamma,0.9999999999999998,2489,3,12217,similarity
14,8,C1150,B750,Gamma,Beta,0.0,4195,3,12217,similarity
10,9,C1050,A50,Gamma,Alpha,0.0,823,3,12217,similarity
11,9,C1050,C1350,Gamma,Gamma,0.0,582,3,12217,similarity
12,9,C1050,B850,Gamma,Beta,0.0,784,3,12217,similarity
13,9,C1050,C1250,Gamma,Gamma,0.0,664,3,12217,similarity
14,9,C1050,B750,Gamma,Beta,0.0,516,3,12217,similarity
11,10,A50,C1350,Alpha,Gamma,0.0,702,3,12217,similarity
12,10,A50,B850,Alpha,Beta,0.0,521,3,12217,similarity
13,10,A50,C1250,Alpha,Gamma,0.0,395,3,12217,similarity
14,10,A50,B750,Alpha,Beta,0.0,531,3,12217,similarity
12,11,C1350,B850,Gamma,Beta,0.0,610,3,12217,similarity
13,11,C1350,C1250,Gamma,Gamma,0.9999999999999998,2115,3,12217,similarity
14,11,C1350,B750,Gamma,Beta,0.0,2766,3,12217,similarity
13,12,B850,C1250,Beta,Gamma,0.0,732,3,12217,similarity
14,12,B850,B750,Beta,Beta,0.0,614,3,12217,similarity
14,13,C1250,B750,Gamma,Beta,0.0,463,3,12217,similarity
1,0,A150,A250,Alpha,Alpha,6.0,10296,3,12220,similarity
2,0,A150,C1050,Alpha,Gamma,0.0,5401,3,12220,similarity
3,0,A150,C1150,Alpha,Gamma,0.0,1770,3,12220,similarity
4,0,A150,B650,Alpha,Beta,0.9999999999999998,5966,3,12220,similarity
5,0,A150,C1250,Alpha,Gamma,0.0,3091,3,12220,similarity
6,0,A150,A350,Alpha,Alpha,6.0,6575,3,12220,similarity
7,0,A150,B850,Alpha,Beta,0.9999999999999998,14883,3,12220,similarity
8,0,A150,B950,Alpha, Beta,0.9999999999999998,5266,3,12220,similarity
9,0,A150,A50,Alpha,Alpha,6.0,3107,3,12220,similarity
10,0,A150,B550,Alpha,Beta,2.0,4627,3,12220,similarity
11,0,A150,C1350,Alpha,Gamma,0.0,2571,3,12220,similarity
12,0,A150,B750,Alpha,Beta,0.9999999999999998,3562,3,12220,similarity
13,0,A150,A450,Alpha,Alpha,0.9999999999999998,11980,3,12220,similarity
14,0,A150,C1450,Alpha,Gamma,6.0,2146,3,12220,similarity
2,1,A250,C1050,Alpha,Gamma,0.0,6548,3,12220,similarity
3,1,A250,C1150,Alpha,Gamma,0.0,1442,3,12220,similarity
4,1,A250,B650,Alpha,Beta,0.9999999999999998,4851,3,12220,similarity
5,1,A250,C1250,Alpha,Gamma,0.0,3010,3,12220,similarity
6,1,A250,A350,Alpha,Alpha,5.0,5567,3,12220,similarity
7,1,A250,B850,Alpha,Beta,0.9999999999999998,4411,3,12220,similarity
8,1,A250,B950,Alpha, Beta,0.9999999999999998,1635,3,12220,similarity
9,1,A250,A50,Alpha,Alpha,6.0,6643,3,12220,similarity
10,1,A250,B550,Alpha,Beta,4.0,6074,3,12220,similarity
11,1,A250,C1350,Alpha,Gamma,0.0,3186,3,12220,similarity
12,1,A250,B750,Alpha,Beta,2.0,6721,3,12220,similarity
13,1,A250,A450,Alpha,Alpha,3.0,12547,3,12220,similarity
14,1,A250,C1450,Alpha,Gamma,0.0,2282,3,12220,similarity
3,2,C1050,C1150,Gamma,Gamma,6.0,9115,3,12220,similarity
4,2,C1050,B650,Gamma,Beta,4.0,4579,3,12220,similarity
5,2,C1050,C1250,Gamma,Gamma,6.0,2427,3,12220,similarity
6,2,C1050,A350,Gamma,Alpha,6.0,5691,3,12220,similarity
7,2,C1050,B850,Gamma,Beta,5.0,3970,3,12220,similarity
8,2,C1050,B950,Gamma, Beta,6.0,3715,3,12220,similarity
9,2,C1050,A50,Gamma,Alpha,0.0,2313,3,12220,similarity
10,2,C1050,B550,Gamma,Beta,0.9999999999999998,10459,3,12220,similarity
11,2,C1050,C1350,Gamma,Gamma,6.0,6193,3,12220,similarity
12,2,C1050,B750,Gamma,Beta,5.0,3362,3,12220,similarity
13,2,C1050,A450,Gamma,Alpha,4.0,3643,3,12220,similarity
14,2,C1050,C1450,Gamma,Gamma,6.0,1900,3,12220,similarity
4,3,C1150,B650,Gamma,Beta,5.0,3108,3,12220,similarity
5,3,C1150,C1250,Gamma,Gamma,6.0,4288,3,12220,similarity
6,3,C1150,A350,Gamma,Alpha,2.0,6139,3,12220,similarity
7,3,C1150,B850,Gamma,Beta,4.0,3739,3,12220,similarity
8,3,C1150,B950,Gamma, Beta,5.0,3125,3,12220,similarity
9,3,C1150,A50,Gamma,Alpha,0.0,2138,3,12220,similarity
10,3,C1150,B550,Gamma,Beta,4.0,3998,3,12220,similarity
11,3,C1150,C1350,Gamma,Gamma,6.0,2932,3,12220,similarity
12,3,C1150,B750,Gamma,Beta,5.0,7049,3,12220,similarity
13,3,C1150,A450,Gamma,Alpha,4.0,2379,3,12220,similarity
14,3,C1150,C1450,Gamma,Gamma,6.0,2010,3,12220,similarity
5,4,B650,C1250,Beta,Gamma,4.0,3693,3,12220,similarity
6,4,B650,A350,Beta,Alpha,6.0,5595,3,12220,similarity
7,4,B650,B850,Beta,Beta,6.0,2745,3,12220,similarity
8,4,B650,B950,Beta, Beta,6.0,3963,3,12220,similarity
9,4,B650,A50,Beta,Alpha,0.9999999999999998,10323,3,12220,similarity
10,4,B650,B550,Beta,Beta,6.0,5467,3,12220,similarity
11,4,B650,C1350,Beta,Gamma,4.0,2852,3,12220,similarity
12,4,B650,B750,Beta,Beta,6.0,2875,3,12220,similarity
13,4,B650,A450,Beta,Alpha,6.0,1564,3,12220,similarity
14,4,B650,C1450,Beta,Gamma,3.0,2394,3,12220,similarity
6,5,C1250,A350,Gamma,Alpha,0.0,3838,3,12220,similarity
7,5,C1250,B850,Gamma,Beta,5.0,8946,3,12220,similarity
8,5,C1250,B950,Gamma, Beta,6.0,2211,3,12220,similarity
9,5,C1250,A50,Gamma,Alpha,0.0,2273,3,12220,similarity
10,5,C1250,B550,Gamma,Beta,4.0,4100,3,12220,similarity
11,5,C1250,C1350,Gamma,Gamma,6.0,2101,3,12220,similarity
12,5,C1250,B750,Gamma,Beta,5.0,4122,3,12220,similarity
13,5,C1250,A450,Gamma,Alpha,4.0,1995,3,12220,similarity
14,5,C1250,C1450,Gamma,Gamma,6.0,1915,3,12220,similarity
7,6,A350,B850,Alpha,Beta,6.0,6075,3,12220,similarity
8,6,A350,B950,Alpha, Beta,6.0,6738,3,12220,similarity
9,6,A350,A50,Alpha,Alpha,6.0,3540,3,12220,similarity
10,6,A350,B550,Alpha,Beta,5.0,4378,3,12220,similarity
11,6,A350,C1350,Alpha,Gamma,0.0,4736,3,12220,similarity
12,6,A350,B750,Alpha,Beta,4.0,4490,3,12220,similarity
13,6,A350,A450,Alpha,Alpha,5.0,6707,3,12220,similarity
14,6,A350,C1450,Alpha,Gamma,0.0,3811,3,12220,similarity
8,7,B850,B950,Beta, Beta,5.0,8994,3,12220,similarity
9,7,B850,A50,Beta,Alpha,0.9999999999999998,8731,3,12220,similarity
10,7,B850,B550,Beta,Beta,6.0,4242,3,12220,similarity
11,7,B850,C1350,Beta,Gamma,6.0,2502,3,12220,similarity
12,7,B850,B750,Beta,Beta,6.0,1907,3,12220,similarity
13,7,B850,A450,Beta,Alpha,6.0,5674,3,12220,similarity
14,7,B850,C1450,Beta,Gamma,5.0,3982,3,12220,similarity
9,8,B950,A50, Beta,Alpha,0.0,5100,3,12220,similarity
10,8,B950,B550, Beta,Beta,6.0,5701,3,12220,similarity
11,8,B950,C1350, Beta,Gamma,6.0,1650,3,12220,similarity
12,8,B950,B750, Beta,Beta,5.0,4690,3,12220,similarity
13,8,B950,A450, Beta,Alpha,6.0,7146,3,12220,similarity
14,8,B950,C1450, Beta,Gamma,6.0,1508,3,12220,similarity
10,9,A50,B550,Alpha,Beta,0.9999999999999998,5602,3,12220,similarity
11,9,A50,C1350,Alpha,Gamma,0.0,1905,3,12220,similarity
12,9,A50,B750,Alpha,Beta,0.0,2923,3,12220,similarity
13,9,A50,A450,Alpha,Alpha,6.0,6571,3,12220,similarity
14,9,A50,C1450,Alpha,Gamma,0.0,3388,3,12220,similarity
11,10,B550,C1350,Beta,Gamma,3.0,3531,3,12220,similarity
12,10,B550,B750,Beta,Beta,6.0,2835,3,12220,similarity
13,10,B550,A450,Beta,Alpha,6.0,1467,3,12220,similarity
14,10,B550,C1450,Beta,Gamma,4.0,7490,3,12220,similarity
12,11,C1350,B750,Gamma,Beta,5.0,2763,3,12220,similarity
13,11,C1350,A450,Gamma,Alpha,0.0,5729,3,12220,similarity
14,11,C1350,C1450,Gamma,Gamma,6.0,2802,3,12220,similarity
13,12,B750,A450,Beta,Alpha,6.0,3826,3,12220,similarity
14,12,B750,C1450,Beta,Gamma,5.0,13670,3,12220,similarity
14,13,A450,C1450,Alpha,Gamma,3.0,3499,3,12220,similarity
1,0,A50,C1250,Gamma,Gamma,0.0,5008,3,12223,similarity
2,0,A50,B950,Alpha, Beta,0.0,4178,3,12223,similarity
3,0,A50,C1350,Alpha,Gamma,0.0,1488,3,12223,similarity
4,0,A50,A250,Alpha,Alpha,4.0,3973,3,12223,similarity
5,0,A50,A350,Alpha,Alpha,3.0,3562,3,12223,similarity
6,0,A50,C1450,Alpha,Gamma,0.0,2228,3,12223,similarity
7,0,A50,B850,Alpha,Beta,0.9999999999999998,2123,3,12223,similarity
8,0,A50,A450,Alpha,Alpha,2.0,1807,3,12223,similarity
9,0,A50,A150,Alpha,Alpha,6.0,2531,3,12223,similarity
10,0,A50,B550,Alpha,Beta,0.9999999999999998,3449,3,12223,similarity
11,0,A50,B650,Alpha,Beta,0.9999999999999998,2091,3,12223,similarity
12,0,A50,C1150,Alpha,Gamma,0.0,1995,3,12223,similarity
13,0,A50,B750,Alpha,Beta,0.9999999999999998,2723,3,12223,similarity
14,0,A50,C1050,Alpha,Gamma,0.9999999999999998,1369,3,12223,similarity
2,1,C1250,B950,Gamma, Beta,5.0,2416,3,12223,similarity
3,1,C1250,C1350,Gamma,Gamma,6.0,1675,3,12223,similarity
4,1,C1250,A250,Gamma,Alpha,2.0,2770,3,12223,similarity
5,1,C1250,A350,Gamma,Alpha,2.0,4099,3,12223,similarity
6,1,C1250,C1450,Gamma,Gamma,6.0,2931,3,12223,similarity
7,1,C1250,B850,Gamma,Beta,5.0,1587,3,12223,similarity
8,1,C1250,A450,Gamma,Alpha,2.0,6806,3,12223,similarity
9,1,C1250,A150,Gamma,Alpha,0.9999999999999998,2651,3,12223,similarity
10,1,C1250,B550,Gamma,Beta,4.0,2305,3,12223,similarity
11,1,C1250,B650,Gamma,Beta,4.0,871,3,12223,similarity
12,1,C1250,C1150,Gamma,Gamma,5.0,1696,3,12223,similarity
13,1,C1250,B750,Gamma,Beta,5.0,1395,3,12223,similarity
14,1,C1250,C1050,Gamma,Gamma,6.0,2668,3,12223,similarity
3,2,B950,C1350, Beta,Gamma,5.0,2817,3,12223,similarity
4,2,B950,A250, Beta,Alpha,0.9999999999999998,2113,3,12223,similarity
5,2,B950,A350, Beta,Alpha,0.9999999999999998,578,3,12223,similarity
6,2,B950,C1450, Beta,Gamma,4.0,1897,3,12223,similarity
7,2,B950,B850, Beta,Beta,6.0,1795,3,12223,similarity
8,2,B950,A450, Beta,Alpha,4.0,1653,3,12223,similarity
9,2,B950,A150, Beta,Alpha,0.9999999999999998,1824,3,12223,similarity
10,2,B950,B550, Beta,Beta,3.0,2514,3,12223,similarity
11,2,B950,B650, Beta,Beta,4.0,1425,3,12223,similarity
12,2,B950,C1150, Beta,Gamma,6.0,1466,3,12223,similarity
13,2,B950,B750, Beta,Beta,6.0,1375,3,12223,similarity
14,2,B950,C1050, Beta,Gamma,6.0,1004,3,12223,similarity
4,3,C1350,A250,Gamma,Alpha,0.9999999999999998,2178,3,12223,similarity
5,3,C1350,A350,Gamma,Alpha,0.9999999999999998,1227,3,12223,similarity
6,3,C1350,C1450,Gamma,Gamma,6.0,1969,3,12223,similarity
7,3,C1350,B850,Gamma,Beta,5.0,1785,3,12223,similarity
8,3,C1350,A450,Gamma,Alpha,3.0,2826,3,12223,similarity
9,3,C1350,A150,Gamma,Alpha,0.9999999999999998,2011,3,12223,similarity
10,3,C1350,B550,Gamma,Beta,2.0,2324,3,12223,similarity
11,3,C1350,B650,Gamma,Beta,3.0,1675,3,12223,similarity
12,3,C1350,C1150,Gamma,Gamma,5.0,1524,3,12223,similarity
13,3,C1350,B750,Gamma,Beta,5.0,1057,3,12223,similarity
14,3,C1350,C1050,Gamma,Gamma,5.0,995,3,12223,similarity
5,4,A250,A350,Alpha,Alpha,6.0,1772,3,12223,similarity
6,4,A250,C1450,Alpha,Gamma,0.0,2555,3,12223,similarity
7,4,A250,B850,Alpha,Beta,2.0,3203,3,12223,similarity
8,4,A250,A450,Alpha,Alpha,5.0,1984,3,12223,similarity
9,4,A250,A150,Alpha,Alpha,6.0,1722,3,12223,similarity
10,4,A250,B550,Alpha,Beta,4.0,2865,3,12223,similarity
11,4,A250,B650,Alpha,Beta,3.0,1798,3,12223,similarity
12,4,A250,C1150,Alpha,Gamma,2.0,1746,3,12223,similarity
13,4,A250,B750,Alpha,Beta,5.0,2347,3,12223,similarity
14,4,A250,C1050,Alpha,Gamma,5.0,824,3,12223,similarity
6,5,A350,C1450,Alpha,Gamma,0.9999999999999998,2935,3,12223,similarity
7,5,A350,B850,Alpha,Beta,4.0,2065,3,12223,similarity
8,5,A350,A450,Alpha,Alpha,6.0,1899,3,12223,similarity
9,5,A350,A150,Alpha,Alpha,5.0,2258,3,12223,similarity
10,5,A350,B550,Alpha,Beta,5.0,923,3,12223,similarity
11,5,A350,B650,Alpha,Beta,5.0,1198,3,12223,similarity
12,5,A350,C1150,Alpha,Gamma,2.0,3258,3,12223,similarity
13,5,A350,B750,Alpha,Beta,2.0,627,3,12223,similarity
14,5,A350,C1050,Alpha,Gamma,2.0,1441,3,12223,similarity
7,6,C1450,B850,Gamma,Beta,5.0,1945,3,12223,similarity
8,6,C1450,A450,Gamma,Alpha,5.0,1218,3,12223,similarity
9,6,C1450,A150,Gamma,Alpha,0.9999999999999998,2574,3,12223,similarity
10,6,C1450,B550,Gamma,Beta,4.0,2308,3,12223,similarity
11,6,C1450,B650,Gamma,Beta,4.0,1043,3,12223,similarity
12,6,C1450,C1150,Gamma,Gamma,5.0,1603,3,12223,similarity
13,6,C1450,B750,Gamma,Beta,5.0,1051,3,12223,similarity
14,6,C1450,C1050,Gamma,Gamma,5.0,1235,3,12223,similarity
8,7,B850,A450,Beta,Alpha,6.0,1576,3,12223,similarity
9,7,B850,A150,Beta,Alpha,0.9999999999999998,2106,3,12223,similarity
10,7,B850,B550,Beta,Beta,2.0,2284,3,12223,similarity
11,7,B850,B650,Beta,Beta,3.0,1507,3,12223,similarity
12,7,B850,C1150,Beta,Gamma,4.0,1483,3,12223,similarity
13,7,B850,B750,Beta,Beta,6.0,1690,3,12223,similarity
14,7,B850,C1050,Beta,Gamma,6.0,578,3,12223,similarity
9,8,A450,A150,Alpha,Alpha,0.9999999999999998,2914,3,12223,similarity
10,8,A450,B550,Alpha,Beta,4.0,2436,3,12223,similarity
11,8,A450,B650,Alpha,Beta,5.0,1450,3,12223,similarity
12,8,A450,C1150,Alpha,Gamma,4.0,1795,3,12223,similarity
13,8,A450,B750,Alpha,Beta,4.0,977,3,12223,similarity
14,8,A450,C1050,Alpha,Gamma,3.0,2379,3,12223,similarity
10,9,A150,B550,Alpha,Beta,3.0,1883,3,12223,similarity
11,9,A150,B650,Alpha,Beta,2.0,1859,3,12223,similarity
12,9,A150,C1150,Alpha,Gamma,0.9999999999999998,1885,3,12223,similarity
13,9,A150,B750,Alpha,Beta,0.9999999999999998,987,3,12223,similarity
14,9,A150,C1050,Alpha,Gamma,0.9999999999999998,908,3,12223,similarity
11,10,B550,B650,Beta,Beta,5.0,1910,3,12223,similarity
12,10,B550,C1150,Beta,Gamma,4.0,2242,3,12223,similarity
13,10,B550,B750,Beta,Beta,6.0,1728,3,12223,similarity
14,10,B550,C1050,Beta,Gamma,5.0,3603,3,12223,similarity
12,11,B650,C1150,Beta,Gamma,5.0,994,3,12223,similarity
13,11,B650,B750,Beta,Beta,6.0,1971,3,12223,similarity
14,11,B650,C1050,Beta,Gamma,6.0,410,3,12223,similarity
13,12,C1150,B750,Gamma,Beta,5.0,1796,3,12223,similarity
14,12,C1150,C1050,Gamma,Gamma,5.0,1019,3,12223,similarity
14,13,B750,C1050,Beta,Gamma,5.0,842,3,12223,similarity
1,0,C1050,A150,Alpha,Alpha,0.0,8932,3,12226,similarity
2,0,C1050,B650,Gamma,Beta,2.0,8729,3,12226,similarity
3,0,C1050,A450,Gamma,Alpha,2.0,2731,3,12226,similarity
4,0,C1050,A350,Gamma,Alpha,0.0,3953,3,12226,similarity
5,0,C1050,C1350,Gamma,Gamma,6.0,6722,3,12226,similarity
6,0,C1050,A50,Gamma,Alpha,0.0,2571,3,12226,similarity
7,0,C1050,B550,Gamma,Beta,0.9999999999999998,7948,3,12226,similarity
8,0,C1050,A250,Gamma,Alpha,0.0,9454,3,12226,similarity
9,0,C1050,C1150,Gamma,Gamma,6.0,3323,3,12226,similarity
10,0,C1050,B950,Gamma, Beta,6.0,1898,3,12226,similarity
11,0,C1050,B750,Gamma,Beta,5.0,4355,3,12226,similarity
12,0,C1050,B850,Gamma,Beta,5.0,2969,3,12226,similarity
13,0,C1050,C1250,Gamma,Gamma,6.0,1867,3,12226,similarity
14,0,C1050,C1450,Gamma,Gamma,6.0,1515,3,12226,similarity
2,1,A150,B650,Alpha,Beta,3.0,2955,3,12226,similarity
3,1,A150,A450,Alpha,Alpha,3.0,1746,3,12226,similarity
4,1,A150,A350,Alpha,Alpha,4.0,3523,3,12226,similarity
5,1,A150,C1350,Alpha,Gamma,0.0,2251,3,12226,similarity
6,1,A150,A50,Alpha,Alpha,6.0,3684,3,12226,similarity
7,1,A150,B550,Alpha,Beta,2.0,7825,3,12226,similarity
8,1,A150,A250,Alpha,Alpha,5.0,4757,3,12226,similarity
9,1,A150,C1150,Alpha,Gamma,0.0,3044,3,12226,similarity
10,1,A150,B950,Alpha, Beta,0.9999999999999998,2163,3,12226,similarity
11,1,A150,B750,Alpha,Beta,0.9999999999999998,2659,3,12226,similarity
12,1,A150,B850,Alpha,Beta,0.0,3243,3,12226,similarity
13,1,A150,C1250,Alpha,Gamma,0.0,1297,3,12226,similarity
14,1,A150,C1450,Alpha,Gamma,0.0,713,3,12226,similarity
3,2,B650,A450,Beta,Alpha,3.0,8619,3,12226,similarity
4,2,B650,A350,Beta,Alpha,3.0,1211,3,12226,similarity
5,2,B650,C1350,Beta,Gamma,0.0,2813,3,12226,similarity
6,2,B650,A50,Beta,Alpha,0.0,2820,3,12226,similarity
7,2,B650,B550,Beta,Beta,5.0,2891,3,12226,similarity
8,2,B650,A250,Beta,Alpha,4.0,2099,3,12226,similarity
9,2,B650,C1150,Beta,Gamma,4.0,2939,3,12226,similarity
10,2,B650,B950,Beta, Beta,5.0,1995,3,12226,similarity
11,2,B650,B750,Beta,Beta,6.0,1963,3,12226,similarity
12,2,B650,B850,Beta,Beta,6.0,1378,3,12226,similarity
13,2,B650,C1250,Beta,Gamma,5.0,3034,3,12226,similarity
14,2,B650,C1450,Beta,Gamma,2.0,1953,3,12226,similarity
4,3,A450,A350,Alpha,Alpha,5.0,3411,3,12226,similarity
5,3,A450,C1350,Alpha,Gamma,0.9999999999999998,7867,3,12226,similarity
6,3,A450,A50,Alpha,Alpha,0.0,3115,3,12226,similarity
7,3,A450,B550,Alpha,Beta,2.0,4275,3,12226,similarity
8,3,A450,A250,Alpha,Alpha,3.0,5035,3,12226,similarity
9,3,A450,C1150,Alpha,Gamma,2.0,2970,3,12226,similarity
10,3,A450,B950,Alpha, Beta,2.0,2202,3,12226,similarity
11,3,A450,B750,Alpha,Beta,3.0,3666,3,12226,similarity
12,3,A450,B850,Alpha,Beta,3.0,4240,3,12226,similarity
13,3,A450,C1250,Alpha,Gamma,0.9999999999999998,4868,3,12226,similarity
14,3,A450,C1450,Alpha,Gamma,0.0,3139,3,12226,similarity
5,4,A350,C1350,Alpha,Gamma,0.0,865,3,12226,similarity
6,4,A350,A50,Alpha,Alpha,5.0,3754,3,12226,similarity
7,4,A350,B550,Alpha,Beta,5.0,1228,3,12226,similarity
8,4,A350,A250,Alpha,Alpha,5.0,1426,3,12226,similarity
9,4,A350,C1150,Alpha,Gamma,0.9999999999999998,3118,3,12226,similarity
10,4,A350,B950,Alpha, Beta,0.9999999999999998,1482,3,12226,similarity
11,4,A350,B750,Alpha,Beta,0.9999999999999998,763,3,12226,similarity
12,4,A350,B850,Alpha,Beta,0.9999999999999998,2644,3,12226,similarity
13,4,A350,C1250,Alpha,Gamma,0.0,4051,3,12226,similarity
14,4,A350,C1450,Alpha,Gamma,0.0,658,3,12226,similarity
6,5,C1350,A50,Gamma,Alpha,0.0,1075,3,12226,similarity
7,5,C1350,B550,Gamma,Beta,0.0,1987,3,12226,similarity
8,5,C1350,A250,Gamma,Alpha,0.0,763,3,12226,similarity
9,5,C1350,C1150,Gamma,Gamma,6.0,5196,3,12226,similarity
10,5,C1350,B950,Gamma, Beta,6.0,916,3,12226,similarity
11,5,C1350,B750,Gamma,Beta,6.0,1531,3,12226,similarity
12,5,C1350,B850,Gamma,Beta,6.0,775,3,12226,similarity
13,5,C1350,C1250,Gamma,Gamma,6.0,1550,3,12226,similarity
14,5,C1350,C1450,Gamma,Gamma,6.0,601,3,12226,similarity
7,6,A50,B550,Alpha,Beta,0.0,3809,3,12226,similarity
8,6,A50,A250,Alpha,Alpha,6.0,2968,3,12226,similarity
9,6,A50,C1150,Alpha,Gamma,0.0,2868,3,12226,similarity
10,6,A50,B950,Alpha, Beta,0.0,987,3,12226,similarity
11,6,A50,B750,Alpha,Beta,0.0,1227,3,12226,similarity
12,6,A50,B850,Alpha,Beta,0.0,931,3,12226,similarity
13,6,A50,C1250,Alpha,Gamma,0.0,675,3,12226,similarity
14,6,A50,C1450,Alpha,Gamma,0.0,553,3,12226,similarity
8,7,B550,A250,Beta,Alpha,3.0,2569,3,12226,similarity
9,7,B550,C1150,Beta,Gamma,2.0,6347,3,12226,similarity
10,7,B550,B950,Beta, Beta,2.0,1227,3,12226,similarity
11,7,B550,B750,Beta,Beta,4.0,3707,3,12226,similarity
12,7,B550,B850,Beta,Beta,4.0,954,3,12226,similarity
13,7,B550,C1250,Beta,Gamma,2.0,2219,3,12226,similarity
14,7,B550,C1450,Beta,Gamma,0.0,2721,3,12226,similarity
9,8,A250,C1150,Alpha,Gamma,0.9999999999999998,3481,3,12226,similarity
10,8,A250,B950,Alpha, Beta,0.9999999999999998,708,3,12226,similarity
11,8,A250,B750,Alpha,Beta,0.9999999999999998,713,3,12226,similarity
12,8,A250,B850,Alpha,Beta,0.9999999999999998,531,3,12226,similarity
13,8,A250,C1250,Alpha,Gamma,0.0,2825,3,12226,similarity
14,8,A250,C1450,Alpha,Gamma,0.0,521,3,12226,similarity
10,9,C1150,B950,Gamma, Beta,6.0,2916,3,12226,similarity
11,9,C1150,B750,Gamma,Beta,5.0,4828,3,12226,similarity
12,9,C1150,B850,Gamma,Beta,5.0,787,3,12226,similarity
13,9,C1150,C1250,Gamma,Gamma,6.0,2324,3,12226,similarity
14,9,C1150,C1450,Gamma,Gamma,6.0,628,3,12226,similarity
11,10,B950,B750, Beta,Beta,5.0,2348,3,12226,similarity
12,10,B950,B850, Beta,Beta,5.0,808,3,12226,similarity
13,10,B950,C1250, Beta,Gamma,6.0,2523,3,12226,similarity
14,10,B950,C1450, Beta,Gamma,6.0,579,3,12226,similarity
12,11,B750,B850,Beta,Beta,6.0,2566,3,12226,similarity
13,11,B750,C1250,Beta,Gamma,4.0,3666,3,12226,similarity
14,11,B750,C1450,Beta,Gamma,3.0,4362,3,12226,similarity
13,12,B850,C1250,Beta,Gamma,3.0,643,3,12226,similarity
14,12,B850,C1450,Beta,Gamma,4.0,4922,3,12226,similarity
14,13,C1250,C1450,Gamma,Gamma,6.0,2377,3,12226,similarity
1,0,C1150,C1250,Gamma,Gamma,2.0,13357,3,12229,similarity
2,0,C1150,C1050,Gamma,Gamma,2.0,7083,3,12229,similarity
3,0,C1150,A450,Gamma,Alpha,0.0,3911,3,12229,similarity
4,0,C1150,B750,Gamma,Beta,2.0,8860,3,12229,similarity
5,0,C1150,B850,Gamma,Beta,0.9999999999999998,3330,3,12229,similarity
6,0,C1150,B650,Gamma,Beta,0.9999999999999998,1388,3,12229,similarity
7,0,C1150,A250,Gamma,Alpha,0.0,8363,3,12229,similarity
8,0,C1150,A350,Gamma,Alpha,0.0,1398,3,12229,similarity
9,0,C1150,B550,Gamma,Beta,0.0,1376,3,12229,similarity
10,0,C1150,A50,Gamma,Alpha,0.0,801,3,12229,similarity
11,0,C1150,B950,Gamma, Beta,4.0,4945,3,12229,similarity
12,0,C1150,C1350,Gamma,Gamma,3.0,7015,3,12229,similarity
13,0,C1150,A150,Gamma,Alpha,0.0,4160,3,12229,similarity
14,0,C1150,C1450,Gamma,Gamma,2.0,7645,3,12229,similarity
2,1,C1250,C1050,Gamma,Gamma,2.0,2818,3,12229,similarity
3,1,C1250,A450,Gamma,Alpha,0.0,8018,3,12229,similarity
4,1,C1250,B750,Gamma,Beta,0.0,1307,3,12229,similarity
5,1,C1250,B850,Gamma,Beta,2.0,10085,3,12229,similarity
6,1,C1250,B650,Gamma,Beta,2.0,951,3,12229,similarity
7,1,C1250,A250,Gamma,Alpha,0.0,4144,3,12229,similarity
8,1,C1250,A350,Gamma,Alpha,0.0,1535,3,12229,similarity
9,1,C1250,B550,Gamma,Beta,0.9999999999999998,2865,3,12229,similarity
10,1,C1250,A50,Gamma,Alpha,0.0,3726,3,12229,similarity
11,1,C1250,B950,Gamma, Beta,2.0,4429,3,12229,similarity
12,1,C1250,C1350,Gamma,Gamma,4.0,3700,3,12229,similarity
13,1,C1250,A150,Gamma,Alpha,0.0,1636,3,12229,similarity
14,1,C1250,C1450,Gamma,Gamma,3.0,3460,3,12229,similarity
3,2,C1050,A450,Gamma,Alpha,2.0,2290,3,12229,similarity
4,2,C1050,B750,Gamma,Beta,4.0,2233,3,12229,similarity
5,2,C1050,B850,Gamma,Beta,4.0,2083,3,12229,similarity
6,2,C1050,B650,Gamma,Beta,2.0,3681,3,12229,similarity
7,2,C1050,A250,Gamma,Alpha,0.9999999999999998,2102,3,12229,similarity
8,2,C1050,A350,Gamma,Alpha,2.0,1738,3,12229,similarity
9,2,C1050,B550,Gamma,Beta,2.0,4876,3,12229,similarity
10,2,C1050,A50,Gamma,Alpha,0.0,3064,3,12229,similarity
11,2,C1050,B950,Gamma, Beta,5.0,3994,3,12229,similarity
12,2,C1050,C1350,Gamma,Gamma,3.0,4255,3,12229,similarity
13,2,C1050,A150,Gamma,Alpha,0.0,1965,3,12229,similarity
14,2,C1050,C1450,Gamma,Gamma,3.0,2170,3,12229,similarity
4,3,A450,B750,Alpha,Beta,3.0,4644,3,12229,similarity
5,3,A450,B850,Alpha,Beta,2.0,1539,3,12229,similarity
6,3,A450,B650,Alpha,Beta,3.0,2298,3,12229,similarity
7,3,A450,A250,Alpha,Alpha,4.0,3790,3,12229,similarity
8,3,A450,A350,Alpha,Alpha,4.0,1354,3,12229,similarity
9,3,A450,B550,Alpha,Beta,5.0,3093,3,12229,similarity
10,3,A450,A50,Alpha,Alpha,0.0,1971,3,12229,similarity
11,3,A450,B950,Alpha, Beta,0.0,2502,3,12229,similarity
12,3,A450,C1350,Alpha,Gamma,0.0,1306,3,12229,similarity
13,3,A450,A150,Alpha,Alpha,0.0,1669,3,12229,similarity
14,3,A450,C1450,Alpha,Gamma,0.0,937,3,12229,similarity
5,4,B750,B850,Beta,Beta,6.0,5571,3,12229,similarity
6,4,B750,B650,Beta,Beta,6.0,1401,3,12229,similarity
7,4,B750,A250,Beta,Alpha,0.9999999999999998,2840,3,12229,similarity
8,4,B750,A350,Beta,Alpha,0.9999999999999998,1547,3,12229,similarity
9,4,B750,B550,Beta,Beta,3.0,5398,3,12229,similarity
10,4,B750,A50,Beta,Alpha,0.0,1906,3,12229,similarity
11,4,B750,B950,Beta, Beta,4.0,2736,3,12229,similarity
12,4,B750,C1350,Beta,Gamma,0.9999999999999998,3861,3,12229,similarity
13,4,B750,A150,Beta,Alpha,0.0,2578,3,12229,similarity
14,4,B750,C1450,Beta,Gamma,0.0,2884,3,12229,similarity
6,5,B850,B650,Beta,Beta,4.0,6694,3,12229,similarity
7,5,B850,A250,Beta,Alpha,0.9999999999999998,5664,3,12229,similarity
8,5,B850,A350,Beta,Alpha,0.9999999999999998,2868,3,12229,similarity
9,5,B850,B550,Beta,Beta,2.0,3096,3,12229,similarity
10,5,B850,A50,Beta,Alpha,0.0,2195,3,12229,similarity
11,5,B850,B950,Beta, Beta,4.0,2786,3,12229,similarity
12,5,B850,C1350,Beta,Gamma,0.0,3960,3,12229,similarity
13,5,B850,A150,Beta,Alpha,0.0,1790,3,12229,similarity
14,5,B850,C1450,Beta,Gamma,0.0,1683,3,12229,similarity
7,6,B650,A250,Beta,Alpha,0.9999999999999998,5210,3,12229,similarity
8,6,B650,A350,Beta,Alpha,3.0,7105,3,12229,similarity
9,6,B650,B550,Beta,Beta,4.0,2755,3,12229,similarity
10,6,B650,A50,Beta,Alpha,0.0,1917,3,12229,similarity
11,6,B650,B950,Beta, Beta,2.0,7628,3,12229,similarity
12,6,B650,C1350,Beta,Gamma,0.0,3671,3,12229,similarity
13,6,B650,A150,Beta,Alpha,0.0,1924,3,12229,similarity
14,6,B650,C1450,Beta,Gamma,0.0,1266,3,12229,similarity
8,7,A250,A350,Alpha,Alpha,6.0,3676,3,12229,similarity
9,7,A250,B550,Alpha,Beta,4.0,6826,3,12229,similarity
10,7,A250,A50,Alpha,Alpha,3.0,15027,3,12229,similarity
11,7,A250,B950,Alpha, Beta,0.0,4330,3,12229,similarity
12,7,A250,C1350,Alpha,Gamma,0.0,970,3,12229,similarity
13,7,A250,A150,Alpha,Alpha,5.0,3830,3,12229,similarity
14,7,A250,C1450,Alpha,Gamma,0.0,2290,3,12229,similarity
9,8,A350,B550,Alpha,Beta,5.0,5204,3,12229,similarity
10,8,A350,A50,Alpha,Alpha,4.0,2932,3,12229,similarity
11,8,A350,B950,Alpha, Beta,0.0,6971,3,12229,similarity
12,8,A350,C1350,Alpha,Gamma,0.0,948,3,12229,similarity
13,8,A350,A150,Alpha,Alpha,5.0,3446,3,12229,similarity
14,8,A350,C1450,Alpha,Gamma,0.0,2346,3,12229,similarity
10,9,B550,A50,Beta,Alpha,0.0,1174,3,12229,similarity
11,9,B550,B950,Beta, Beta,4.0,9168,3,12229,similarity
12,9,B550,C1350,Beta,Gamma,2.0,5508,3,12229,similarity
13,9,B550,A150,Beta,Alpha,3.0,4369,3,12229,similarity
14,9,B550,C1450,Beta,Gamma,0.0,2300,3,12229,similarity
11,10,A50,B950,Alpha, Beta,0.0,1973,3,12229,similarity
12,10,A50,C1350,Alpha,Gamma,0.0,738,3,12229,similarity
13,10,A50,A150,Alpha,Alpha,6.0,3032,3,12229,similarity
14,10,A50,C1450,Alpha,Gamma,0.0,2146,3,12229,similarity
12,11,B950,C1350, Beta,Gamma,5.0,4285,3,12229,similarity
13,11,B950,A150, Beta,Alpha,0.0,2327,3,12229,similarity
14,11,B950,C1450, Beta,Gamma,0.0,1463,3,12229,similarity
13,12,C1350,A150,Gamma,Alpha,0.0,6269,3,12229,similarity
14,12,C1350,C1450,Gamma,Gamma,6.0,2731,3,12229,similarity
14,13,A150,C1450,Alpha,Gamma,0.0,2594,3,12229,similarity
1,0,B550,B650,Beta,Beta,4.0,13578,3,12251,similarity
2,0,B550,C1350,Beta,Gamma,0.9999999999999998,4212,3,12251,similarity
3,0,B550,A450,Beta,Alpha,4.0,3442,3,12251,similarity
4,0,B550,C1150,Beta,Gamma,0.9999999999999998,2667,3,12251,similarity
5,0,B550,C1250,Beta,Gamma,0.9999999999999998,1411,3,12251,similarity
6,0,B550,A50,Beta,Alpha,0.0,2681,3,12251,similarity
7,0,B550,B950,Beta, Beta,2.0,4668,3,12251,similarity
8,0,B550,A350,Beta,Alpha,3.0,4183,3,12251,similarity
9,0,B550,B850,Beta,Beta,3.0,1860,3,12251,similarity
10,0,B550,A150,Beta,Alpha,0.9999999999999998,4610,3,12251,similarity
11,0,B550,C1050,Beta,Gamma,0.9999999999999998,2794,3,12251,similarity
12,0,B550,A250,Beta,Alpha,2.0,2603,3,12251,similarity
13,0,B550,C1450,Beta,Gamma,0.0,3202,3,12251,similarity
14,0,B550,B750,Beta,Beta,4.0,5818,3,12251,similarity
2,1,B650,C1350,Beta,Gamma,2.0,2340,3,12251,similarity
3,1,B650,A450,Beta,Alpha,2.0,1586,3,12251,similarity
4,1,B650,C1150,Beta,Gamma,2.0,4945,3,12251,similarity
5,1,B650,C1250,Beta,Gamma,0.9999999999999998,1618,3,12251,similarity
6,1,B650,A50,Beta,Alpha,0.0,1859,3,12251,similarity
7,1,B650,B950,Beta, Beta,0.9999999999999998,2115,3,12251,similarity
8,1,B650,A350,Beta,Alpha,2.0,1802,3,12251,similarity
9,1,B650,B850,Beta,Beta,2.0,1083,3,12251,similarity
10,1,B650,A150,Beta,Alpha,0.9999999999999998,4795,3,12251,similarity
11,1,B650,C1050,Beta,Gamma,0.9999999999999998,1474,3,12251,similarity
12,1,B650,A250,Beta,Alpha,0.9999999999999998,1971,3,12251,similarity
13,1,B650,C1450,Beta,Gamma,0.0,2298,3,12251,similarity
14,1,B650,B750,Beta,Beta,5.0,4595,3,12251,similarity
3,2,C1350,A450,Gamma,Alpha,0.9999999999999998,2242,3,12251,similarity
4,2,C1350,C1150,Gamma,Gamma,4.0,2585,3,12251,similarity
5,2,C1350,C1250,Gamma,Gamma,5.0,3291,3,12251,similarity
6,2,C1350,A50,Gamma,Alpha,0.0,2091,3,12251,similarity
7,2,C1350,B950,Gamma, Beta,4.0,3730,3,12251,similarity
8,2,C1350,A350,Gamma,Alpha,2.0,2163,3,12251,similarity
9,2,C1350,B850,Gamma,Beta,3.0,3115,3,12251,similarity
10,2,C1350,A150,Gamma,Alpha,0.9999999999999998,1850,3,12251,similarity
11,2,C1350,C1050,Gamma,Gamma,2.0,2234,3,12251,similarity
12,2,C1350,A250,Gamma,Alpha,0.9999999999999998,2618,3,12251,similarity
13,2,C1350,C1450,Gamma,Gamma,6.0,3929,3,12251,similarity
14,2,C1350,B750,Gamma,Beta,5.0,2043,3,12251,similarity
4,3,A450,C1150,Alpha,Gamma,4.0,2090,3,12251,similarity
5,3,A450,C1250,Alpha,Gamma,2.0,3114,3,12251,similarity
6,3,A450,A50,Alpha,Alpha,0.9999999999999998,1842,3,12251,similarity
7,3,A450,B950,Alpha, Beta,0.9999999999999998,1229,3,12251,similarity
8,3,A450,A350,Alpha,Alpha,0.9999999999999998,516,3,12251,similarity
9,3,A450,B850,Alpha,Beta,0.9999999999999998,1017,3,12251,similarity
10,3,A450,A150,Alpha,Alpha,0.9999999999999998,1444,3,12251,similarity
11,3,A450,C1050,Alpha,Gamma,2.0,4394,3,12251,similarity
12,3,A450,A250,Alpha,Alpha,2.0,794,3,12251,similarity
13,3,A450,C1450,Alpha,Gamma,0.0,2210,3,12251,similarity
14,3,A450,B750,Alpha,Beta,0.9999999999999998,2626,3,12251,similarity
5,4,C1150,C1250,Gamma,Gamma,2.0,1787,3,12251,similarity
6,4,C1150,A50,Gamma,Alpha,0.9999999999999998,1699,3,12251,similarity
7,4,C1150,B950,Gamma, Beta,4.0,2569,3,12251,similarity
8,4,C1150,A350,Gamma,Alpha,0.0,2236,3,12251,similarity
9,4,C1150,B850,Gamma,Beta,4.0,2833,3,12251,similarity
10,4,C1150,A150,Gamma,Alpha,0.9999999999999998,2043,3,12251,similarity
11,4,C1150,C1050,Gamma,Gamma,5.0,2089,3,12251,similarity
12,4,C1150,A250,Gamma,Alpha,0.9999999999999998,3035,3,12251,similarity
13,4,C1150,C1450,Gamma,Gamma,5.0,2091,3,12251,similarity
14,4,C1150,B750,Gamma,Beta,4.0,1586,3,12251,similarity
6,5,C1250,A50,Gamma,Alpha,0.0,2691,3,12251,similarity
7,5,C1250,B950,Gamma, Beta,4.0,2305,3,12251,similarity
8,5,C1250,A350,Gamma,Alpha,5.0,1850,3,12251,similarity
9,5,C1250,B850,Gamma,Beta,5.0,1458,3,12251,similarity
10,5,C1250,A150,Gamma,Alpha,0.0,2754,3,12251,similarity
11,5,C1250,C1050,Gamma,Gamma,4.0,2908,3,12251,similarity
12,5,C1250,A250,Gamma,Alpha,2.0,2594,3,12251,similarity
13,5,C1250,C1450,Gamma,Gamma,5.0,2307,3,12251,similarity
14,5,C1250,B750,Gamma,Beta,4.0,1833,3,12251,similarity
7,6,A50,B950,Alpha, Beta,0.0,1730,3,12251,similarity
8,6,A50,A350,Alpha,Alpha,2.0,2353,3,12251,similarity
9,6,A50,B850,Alpha,Beta,0.9999999999999998,1347,3,12251,similarity
10,6,A50,A150,Alpha,Alpha,0.9999999999999998,1690,3,12251,similarity
11,6,A50,C1050,Alpha,Gamma,0.9999999999999998,2315,3,12251,similarity
12,6,A50,A250,Alpha,Alpha,5.0,2595,3,12251,similarity
13,6,A50,C1450,Alpha,Gamma,0.0,2163,3,12251,similarity
14,6,A50,B750,Alpha,Beta,0.9999999999999998,2284,3,12251,similarity
8,7,B950,A350, Beta,Alpha,2.0,1739,3,12251,similarity
9,7,B950,B850, Beta,Beta,5.0,2043,3,12251,similarity
10,7,B950,A150, Beta,Alpha,5.0,2083,3,12251,similarity
11,7,B950,C1050, Beta,Gamma,3.0,2092,3,12251,similarity
12,7,B950,A250, Beta,Alpha,3.0,1323,3,12251,similarity
13,7,B950,C1450, Beta,Gamma,3.0,336,3,12251,similarity
14,7,B950,B750, Beta,Beta,3.0,138,3,12251,similarity
9,8,A350,B850,Alpha,Beta,3.0,165,3,12251,similarity
10,8,A350,A150,Alpha,Alpha,2.0,1619,3,12251,similarity
11,8,A350,C1050,Alpha,Gamma,2.0,387,3,12251,similarity
12,8,A350,A250,Alpha,Alpha,2.0,152,3,12251,similarity
13,8,A350,C1450,Alpha,Gamma,2.0,145,3,12251,similarity
14,8,A350,B750,Alpha,Beta,2.0,173,3,12251,similarity
10,9,B850,A150,Beta,Alpha,2.0,166,3,12251,similarity
11,9,B850,C1050,Beta,Gamma,2.0,270,3,12251,similarity
12,9,B850,A250,Beta,Alpha,4.0,2409,3,12251,similarity
13,9,B850,C1450,Beta,Gamma,4.0,240,3,12251,similarity
14,9,B850,B750,Beta,Beta,4.0,148,3,12251,similarity
11,10,A150,C1050,Alpha,Gamma,4.0,94,3,12251,similarity
12,10,A150,A250,Alpha,Alpha,3.0,1891,3,12251,similarity
13,10,A150,C1450,Alpha,Gamma,2.0,1283,3,12251,similarity
14,10,A150,B750,Alpha,Beta,2.0,3785,3,12251,similarity
12,11,C1050,A250,Gamma,Alpha,0.9999999999999998,1658,3,12251,similarity
13,11,C1050,C1450,Gamma,Gamma,5.0,3410,3,12251,similarity
14,11,C1050,B750,Gamma,Beta,5.0,827,3,12251,similarity
13,12,A250,C1450,Alpha,Gamma,0.9999999999999998,3154,3,12251,similarity
14,12,A250,B750,Alpha,Beta,2.0,3076,3,12251,similarity
14,13,C1450,B750,Gamma,Beta,3.0,1683,3,12251,similarity
1,0,C1450,B950, Beta, Beta,4.0,11397,3,12254,similarity
2,0,C1450,C1350,Gamma,Gamma,5.0,3847,3,12254,similarity
3,0,C1450,A150,Gamma,Alpha,4.0,5516,3,12254,similarity
4,0,C1450,A350,Gamma,Alpha,4.0,2004,3,12254,similarity
5,0,C1450,B750,Gamma,Beta,4.0,2363,3,12254,similarity
6,0,C1450,C1250,Gamma,Gamma,5.0,2272,3,12254,similarity
7,0,C1450,C1050,Gamma,Gamma,5.0,1270,3,12254,similarity
8,0,C1450,B650,Gamma,Beta,4.0,2500,3,12254,similarity
9,0,C1450,A450,Gamma,Alpha,4.0,2686,3,12254,similarity
10,0,C1450,B850,Gamma,Beta,4.0,2353,3,12254,similarity
11,0,C1450,C1150,Gamma,Gamma,5.0,2699,3,12254,similarity
12,0,C1450,B550,Gamma,Beta,4.0,2124,3,12254,similarity
13,0,C1450,A50,Gamma,Alpha,3.0,3702,3,12254,similarity
14,0,C1450,A250,Gamma,Alpha,4.0,3200,3,12254,similarity
2,1,B950,C1350, Beta,Gamma,4.0,4592,3,12254,similarity
3,1,B950,A150, Beta,Alpha,4.0,2329,3,12254,similarity
4,1,B950,A350, Beta,Alpha,4.0,1890,3,12254,similarity
5,1,B950,B750, Beta,Beta,5.0,2154,3,12254,similarity
6,1,B950,C1250, Beta,Gamma,4.0,2524,3,12254,similarity
7,1,B950,C1050, Beta,Gamma,6.0,2861,3,12254,similarity
8,1,B950,B650, Beta,Beta,4.0,2383,3,12254,similarity
9,1,B950,A450, Beta,Alpha,4.0,1431,3,12254,similarity
10,1,B950,B850, Beta,Beta,5.0,2294,3,12254,similarity
11,1,B950,C1150, Beta,Gamma,5.0,4625,3,12254,similarity
12,1,B950,B550, Beta,Beta,4.0,2208,3,12254,similarity
13,1,B950,A50, Beta,Alpha,3.0,2005,3,12254,similarity
14,1,B950,A250, Beta,Alpha,4.0,2243,3,12254,similarity
3,2,C1350,A150,Gamma,Alpha,3.0,2280,3,12254,similarity
4,2,C1350,A350,Gamma,Alpha,4.0,2773,3,12254,similarity
5,2,C1350,B750,Gamma,Beta,4.0,4234,3,12254,similarity
6,2,C1350,C1250,Gamma,Gamma,5.0,2309,3,12254,similarity
7,2,C1350,C1050,Gamma,Gamma,5.0,2276,3,12254,similarity
8,2,C1350,B650,Gamma,Beta,4.0,1931,3,12254,similarity
9,2,C1350,A450,Gamma,Alpha,4.0,1060,3,12254,similarity
10,2,C1350,B850,Gamma,Beta,4.0,1686,3,12254,similarity
11,2,C1350,C1150,Gamma,Gamma,5.0,2118,3,12254,similarity
12,2,C1350,B550,Gamma,Beta,4.0,1797,3,12254,similarity
13,2,C1350,A50,Gamma,Alpha,3.0,2258,3,12254,similarity
14,2,C1350,A250,Gamma,Alpha,3.0,1797,3,12254,similarity
4,3,A150,A350,Alpha,Alpha,5.0,2948,3,12254,similarity
5,3,A150,B750,Alpha,Beta,4.0,2991,3,12254,similarity
6,3,A150,C1250,Alpha,Gamma,3.0,3138,3,12254,similarity
7,3,A150,C1050,Alpha,Gamma,3.0,1149,3,12254,similarity
8,3,A150,B650,Alpha,Beta,4.0,2736,3,12254,similarity
9,3,A150,A450,Alpha,Alpha,5.0,3218,3,12254,similarity
10,3,A150,B850,Alpha,Beta,4.0,2020,3,12254,similarity
11,3,A150,C1150,Alpha,Gamma,3.0,2348,3,12254,similarity
12,3,A150,B550,Alpha,Beta,4.0,3619,3,12254,similarity
13,3,A150,A50,Alpha,Alpha,5.0,3171,3,12254,similarity
14,3,A150,A250,Alpha,Alpha,5.0,3355,3,12254,similarity
5,4,A350,B750,Alpha,Beta,4.0,1858,3,12254,similarity
6,4,A350,C1250,Alpha,Gamma,4.0,3302,3,12254,similarity
7,4,A350,C1050,Alpha,Gamma,4.0,1842,3,12254,similarity
8,4,A350,B650,Alpha,Beta,5.0,2131,3,12254,similarity
9,4,A350,A450,Alpha,Alpha,6.0,1816,3,12254,similarity
10,4,A350,B850,Alpha,Beta,4.0,2074,3,12254,similarity
11,4,A350,C1150,Alpha,Gamma,4.0,1243,3,12254,similarity
12,4,A350,B550,Alpha,Beta,5.0,3058,3,12254,similarity
13,4,A350,A50,Alpha,Alpha,4.0,2580,3,12254,similarity
14,4,A350,A250,Alpha,Alpha,6.0,2140,3,12254,similarity
6,5,B750,C1250,Beta,Gamma,5.0,2484,3,12254,similarity
7,5,B750,C1050,Beta,Gamma,5.0,1139,3,12254,similarity
8,5,B750,B650,Beta,Beta,6.0,3068,3,12254,similarity
9,5,B750,A450,Beta,Alpha,4.0,3264,3,12254,similarity
10,5,B750,B850,Beta,Beta,6.0,1453,3,12254,similarity
11,5,B750,C1150,Beta,Gamma,4.0,2057,3,12254,similarity
12,5,B750,B550,Beta,Beta,5.0,2228,3,12254,similarity
13,5,B750,A50,Beta,Alpha,3.0,1808,3,12254,similarity
14,5,B750,A250,Beta,Alpha,4.0,1745,3,12254,similarity
7,6,C1250,C1050,Gamma,Gamma,5.0,3364,3,12254,similarity
8,6,C1250,B650,Gamma,Beta,4.0,2386,3,12254,similarity
9,6,C1250,A450,Gamma,Alpha,3.0,2051,3,12254,similarity
10,6,C1250,B850,Gamma,Beta,4.0,2234,3,12254,similarity
11,6,C1250,C1150,Gamma,Gamma,6.0,3371,3,12254,similarity
12,6,C1250,B550,Gamma,Beta,4.0,3426,3,12254,similarity
13,6,C1250,A50,Gamma,Alpha,3.0,1674,3,12254,similarity
14,6,C1250,A250,Gamma,Alpha,4.0,1646,3,12254,similarity
8,7,C1050,B650,Gamma,Beta,5.0,1707,3,12254,similarity
9,7,C1050,A450,Gamma,Alpha,5.0,1899,3,12254,similarity
10,7,C1050,B850,Gamma,Beta,5.0,2323,3,12254,similarity
