trial,block,stimId1,stimID2,category1,category2,response,rt,condition,id,phase
1,0,A50,B750,Beta,Beta,0.9999999999999998,1948,2,12143,similarity
2,0,A50,B550,Alpha,Beta,4.0,1194,2,12143,similarity
3,0,A50,B850,Alpha,Beta,3.0,1827,2,12143,similarity
4,0,A50,C1250,Alpha,Gamma,4.0,684,2,12143,similarity
5,0,A50,C1050,Alpha,Gamma,3.0,883,2,12143,similarity
6,0,A50,A150,Alpha,Alpha,5.0,810,2,12143,similarity
7,0,A50,A350,Alpha,Alpha,5.0,722,2,12143,similarity
8,0,A50,C1150,Alpha,Gamma,5.0,3414,2,12143,similarity
9,0,A50,C1350,Alpha,Gamma,0.9999999999999998,2235,2,12143,similarity
10,0,A50,C1450,Alpha,Gamma,0.9999999999999998,323,2,12143,similarity
11,0,A50,B650,Alpha,Beta,0.9999999999999998,460,2,12143,similarity
12,0,A50,A250,Alpha,Alpha,0.9999999999999998,460,2,12143,similarity
13,0,A50,B950,Alpha, Beta,0.9999999999999998,2142,2,12143,similarity
14,0,A50,A450,Alpha,Alpha,2.0,994,2,12143,similarity
2,1,B750,B550,Beta,Beta,2.0,191,2,12143,similarity
3,1,B750,B850,Beta,Beta,2.0,573,2,12143,similarity
4,1,B750,C1250,Beta,Gamma,4.0,1023,2,12143,similarity
5,1,B750,C1050,Beta,Gamma,4.0,331,2,12143,similarity
6,1,B750,A150,Beta,Alpha,4.0,143,2,12143,similarity
7,1,B750,A350,Beta,Alpha,3.0,1105,2,12143,similarity
8,1,B750,C1150,Beta,Gamma,3.0,163,2,12143,similarity
9,1,B750,C1350,Beta,Gamma,4.0,1051,2,12143,similarity
10,1,B750,C1450,Beta,Gamma,4.0,1234,2,12143,similarity
11,1,B750,B650,Beta,Beta,4.0,79,2,12143,similarity
12,1,B750,A250,Beta,Alpha,4.0,228,2,12143,similarity
13,1,B750,B950,Beta, Beta,4.0,1243,2,12143,similarity
14,1,B750,A450,Beta,Alpha,4.0,103,2,12143,similarity
3,2,B550,B850,Beta,Beta,4.0,170,2,12143,similarity
4,2,B550,C1250,Beta,Gamma,5.0,1818,2,12143,similarity
5,2,B550,C1050,Beta,Gamma,5.0,349,2,12143,similarity
6,2,B550,A150,Beta,Alpha,2.0,1604,2,12143,similarity
7,2,B550,A350,Beta,Alpha,3.0,1018,2,12143,similarity
8,2,B550,C1150,Beta,Gamma,3.0,274,2,12143,similarity
9,2,B550,C1350,Beta,Gamma,4.0,747,2,12143,similarity
10,2,B550,C1450,Beta,Gamma,4.0,199,2,12143,similarity
11,2,B550,B650,Beta,Beta,3.0,762,2,12143,similarity
12,2,B550,A250,Beta,Alpha,5.0,859,2,12143,similarity
13,2,B550,B950,Beta, Beta,5.0,241,2,12143,similarity
14,2,B550,A450,Beta,Alpha,5.0,1219,2,12143,similarity
4,3,B850,C1250,Beta,Gamma,3.0,1363,2,12143,similarity
5,3,B850,C1050,Beta,Gamma,3.0,3505,2,12143,similarity
6,3,B850,A150,Beta,Alpha,3.0,312,2,12143,similarity
7,3,B850,A350,Beta,Alpha,2.0,1257,2,12143,similarity
8,3,B850,C1150,Beta,Gamma,4.0,1122,2,12143,similarity
9,3,B850,C1350,Beta,Gamma,4.0,448,2,12143,similarity
10,3,B850,C1450,Beta,Gamma,4.0,1724,2,12143,similarity
11,3,B850,B650,Beta,Beta,6.0,1980,2,12143,similarity
12,3,B850,A250,Beta,Alpha,6.0,829,2,12143,similarity
13,3,B850,B950,Beta, Beta,5.0,1971,2,12143,similarity
14,3,B850,A450,Beta,Alpha,5.0,394,2,12143,similarity
5,4,C1250,C1050,Gamma,Gamma,5.0,834,2,12143,similarity
6,4,C1250,A150,Gamma,Alpha,2.0,1569,2,12143,similarity
7,4,C1250,A350,Gamma,Alpha,2.0,450,2,12143,similarity
8,4,C1250,C1150,Gamma,Gamma,2.0,654,2,12143,similarity
9,4,C1250,C1350,Gamma,Gamma,5.0,1291,2,12143,similarity
10,4,C1250,C1450,Gamma,Gamma,5.0,704,2,12143,similarity
11,4,C1250,B650,Gamma,Beta,5.0,651,2,12143,similarity
12,4,C1250,A250,Gamma,Alpha,4.0,963,2,12143,similarity
13,4,C1250,B950,Gamma, Beta,4.0,345,2,12143,similarity
14,4,C1250,A450,Gamma,Alpha,5.0,1078,2,12143,similarity
6,5,C1050,A150,Gamma,Alpha,5.0,520,2,12143,similarity
7,5,C1050,A350,Gamma,Alpha,3.0,1034,2,12143,similarity
8,5,C1050,C1150,Gamma,Gamma,3.0,259,2,12143,similarity
9,5,C1050,C1350,Gamma,Gamma,3.0,101,2,12143,similarity
10,5,C1050,C1450,Gamma,Gamma,6.0,971,2,12143,similarity
11,5,C1050,B650,Gamma,Beta,5.0,1228,2,12143,similarity
12,5,C1050,A250,Gamma,Alpha,5.0,183,2,12143,similarity
13,5,C1050,B950,Gamma, Beta,5.0,216,2,12143,similarity
14,5,C1050,A450,Gamma,Alpha,5.0,443,2,12143,similarity
7,6,A150,A350,Alpha,Alpha,5.0,253,2,12143,similarity
8,6,A150,C1150,Alpha,Gamma,4.0,1265,2,12143,similarity
9,6,A150,C1350,Alpha,Gamma,4.0,187,2,12143,similarity
10,6,A150,C1450,Alpha,Gamma,4.0,373,2,12143,similarity
11,6,A150,B650,Alpha,Beta,4.0,362,2,12143,similarity
12,6,A150,A250,Alpha,Alpha,4.0,271,2,12143,similarity
13,6,A150,B950,Alpha, Beta,4.0,371,2,12143,similarity
14,6,A150,A450,Alpha,Alpha,4.0,371,2,12143,similarity
8,7,A350,C1150,Alpha,Gamma,3.0,2707,2,12143,similarity
9,7,A350,C1350,Alpha,Gamma,3.0,316,2,12143,similarity
10,7,A350,C1450,Alpha,Gamma,5.0,1137,2,12143,similarity
11,7,A350,B650,Alpha,Beta,5.0,344,2,12143,similarity
12,7,A350,A250,Alpha,Alpha,3.0,1499,2,12143,similarity
13,7,A350,B950,Alpha, Beta,2.0,1627,2,12143,similarity
14,7,A350,A450,Alpha,Alpha,2.0,682,2,12143,similarity
9,8,C1150,C1350,Gamma,Gamma,3.0,851,2,12143,similarity
10,8,C1150,C1450,Gamma,Gamma,2.0,786,2,12143,similarity
11,8,C1150,B650,Gamma,Beta,0.9999999999999998,866,2,12143,similarity
12,8,C1150,A250,Gamma,Alpha,2.0,992,2,12143,similarity
13,8,C1150,B950,Gamma, Beta,3.0,698,2,12143,similarity
14,8,C1150,A450,Gamma,Alpha,3.0,205,2,12143,similarity
10,9,C1350,C1450,Gamma,Gamma,4.0,674,2,12143,similarity
11,9,C1350,B650,Gamma,Beta,4.0,171,2,12143,similarity
12,9,C1350,A250,Gamma,Alpha,3.0,770,2,12143,similarity
13,9,C1350,B950,Gamma, Beta,3.0,288,2,12143,similarity
14,9,C1350,A450,Gamma,Alpha,2.0,778,2,12143,similarity
11,10,C1450,B650,Gamma,Beta,3.0,1003,2,12143,similarity
12,10,C1450,A250,Gamma,Alpha,4.0,602,2,12143,similarity
13,10,C1450,B950,Gamma, Beta,3.0,795,2,12143,similarity
14,10,C1450,A450,Gamma,Alpha,2.0,691,2,12143,similarity
12,11,B650,A250,Beta,Alpha,3.0,1218,2,12143,similarity
13,11,B650,B950,Beta, Beta,4.0,4946,2,12143,similarity
14,11,B650,A450,Beta,Alpha,4.0,535,2,12143,similarity
13,12,A250,B950,Alpha, Beta,3.0,1011,2,12143,similarity
14,12,A250,A450,Alpha,Alpha,3.0,1081,2,12143,similarity
14,13,B950,A450, Beta,Alpha,4.0,690,2,12143,similarity
1,0,C1250,A250,Alpha,Alpha,0.0,4057,2,12160,similarity
2,0,C1250,B750,Gamma,Beta,0.9999999999999998,5683,2,12160,similarity
3,0,C1250,B850,Gamma,Beta,2.0,2330,2,12160,similarity
4,0,C1250,C1050,Gamma,Gamma,3.0,2098,2,12160,similarity
5,0,C1250,B550,Gamma,Beta,0.9999999999999998,2464,2,12160,similarity
6,0,C1250,C1150,Gamma,Gamma,4.0,2332,2,12160,similarity
7,0,C1250,B950,Gamma, Beta,3.0,1546,2,12160,similarity
8,0,C1250,A50,Gamma,Alpha,0.0,2659,2,12160,similarity
9,0,C1250,A150,Gamma,Alpha,0.0,1363,2,12160,similarity
10,0,C1250,B650,Gamma,Beta,2.0,2932,2,12160,similarity
11,0,C1250,C1450,Gamma,Gamma,5.0,4653,2,12160,similarity
12,0,C1250,A450,Gamma,Alpha,2.0,3572,2,12160,similarity
13,0,C1250,C1350,Gamma,Gamma,5.0,2578,2,12160,similarity
14,0,C1250,A350,Gamma,Alpha,0.9999999999999998,6722,2,12160,similarity
2,1,A250,B750,Alpha,Beta,0.9999999999999998,3599,2,12160,similarity
3,1,A250,B850,Alpha,Beta,0.0,2043,2,12160,similarity
4,1,A250,C1050,Alpha,Gamma,0.0,1074,2,12160,similarity
5,1,A250,B550,Alpha,Beta,0.9999999999999998,2159,2,12160,similarity
6,1,A250,C1150,Alpha,Gamma,0.0,2027,2,12160,similarity
7,1,A250,B950,Alpha, Beta,0.0,824,2,12160,similarity
8,1,A250,A50,Alpha,Alpha,0.9999999999999998,3155,2,12160,similarity
9,1,A250,A150,Alpha,Alpha,2.0,1881,2,12160,similarity
10,1,A250,B650,Alpha,Beta,2.0,2864,2,12160,similarity
11,1,A250,C1450,Alpha,Gamma,0.0,2667,2,12160,similarity
12,1,A250,A450,Alpha,Alpha,3.0,13171,2,12160,similarity
13,1,A250,C1350,Alpha,Gamma,0.0,1844,2,12160,similarity
14,1,A250,A350,Alpha,Alpha,3.0,2406,2,12160,similarity
3,2,B750,B850,Beta,Beta,4.0,1717,2,12160,similarity
4,2,B750,C1050,Beta,Gamma,3.0,1679,2,12160,similarity
5,2,B750,B550,Beta,Beta,3.0,2697,2,12160,similarity
6,2,B750,C1150,Beta,Gamma,2.0,2075,2,12160,similarity
7,2,B750,B950,Beta, Beta,4.0,7605,2,12160,similarity
8,2,B750,A50,Beta,Alpha,0.0,1724,2,12160,similarity
9,2,B750,A150,Beta,Alpha,0.0,1115,2,12160,similarity
10,2,B750,B650,Beta,Beta,3.0,2321,2,12160,similarity
11,2,B750,C1450,Beta,Gamma,2.0,2712,2,12160,similarity
12,2,B750,A450,Beta,Alpha,2.0,8660,2,12160,similarity
13,2,B750,C1350,Beta,Gamma,0.9999999999999998,6782,2,12160,similarity
14,2,B750,A350,Beta,Alpha,0.9999999999999998,1787,2,12160,similarity
4,3,B850,C1050,Beta,Gamma,3.0,3259,2,12160,similarity
5,3,B850,B550,Beta,Beta,2.0,2952,2,12160,similarity
6,3,B850,C1150,Beta,Gamma,4.0,4505,2,12160,similarity
7,3,B850,B950,Beta, Beta,4.0,1425,2,12160,similarity
8,3,B850,A50,Beta,Alpha,0.0,1690,2,12160,similarity
9,3,B850,A150,Beta,Alpha,0.0,2290,2,12160,similarity
10,3,B850,B650,Beta,Beta,3.0,6278,2,12160,similarity
11,3,B850,C1450,Beta,Gamma,2.0,3812,2,12160,similarity
12,3,B850,A450,Beta,Alpha,0.9999999999999998,1795,2,12160,similarity
13,3,B850,C1350,Beta,Gamma,0.9999999999999998,2010,2,12160,similarity
14,3,B850,A350,Beta,Alpha,0.9999999999999998,3276,2,12160,similarity
5,4,C1050,B550,Gamma,Beta,0.9999999999999998,1306,2,12160,similarity
6,4,C1050,C1150,Gamma,Gamma,4.0,2702,2,12160,similarity
7,4,C1050,B950,Gamma, Beta,5.0,4242,2,12160,similarity
8,4,C1050,A50,Gamma,Alpha,0.0,1804,2,12160,similarity
9,4,C1050,A150,Gamma,Alpha,0.0,1020,2,12160,similarity
10,4,C1050,B650,Gamma,Beta,0.9999999999999998,2776,2,12160,similarity
11,4,C1050,C1450,Gamma,Gamma,0.9999999999999998,3206,2,12160,similarity
12,4,C1050,A450,Gamma,Alpha,0.9999999999999998,3132,2,12160,similarity
13,4,C1050,C1350,Gamma,Gamma,3.0,2960,2,12160,similarity
14,4,C1050,A350,Gamma,Alpha,0.9999999999999998,5459,2,12160,similarity
6,5,B550,C1150,Beta,Gamma,0.9999999999999998,1578,2,12160,similarity
7,5,B550,B950,Beta, Beta,0.9999999999999998,662,2,12160,similarity
8,5,B550,A50,Beta,Alpha,0.0,2149,2,12160,similarity
9,5,B550,A150,Beta,Alpha,0.0,931,2,12160,similarity
10,5,B550,B650,Beta,Beta,3.0,2050,2,12160,similarity
11,5,B550,C1450,Beta,Gamma,0.9999999999999998,2428,2,12160,similarity
12,5,B550,A450,Beta,Alpha,4.0,4083,2,12160,similarity
13,5,B550,C1350,Beta,Gamma,0.9999999999999998,2523,2,12160,similarity
14,5,B550,A350,Beta,Alpha,0.9999999999999998,2276,2,12160,similarity
7,6,C1150,B950,Gamma, Beta,2.0,2106,2,12160,similarity
8,6,C1150,A50,Gamma,Alpha,0.0,2723,2,12160,similarity
9,6,C1150,A150,Gamma,Alpha,0.0,1130,2,12160,similarity
10,6,C1150,B650,Gamma,Beta,0.9999999999999998,2441,2,12160,similarity
11,6,C1150,C1450,Gamma,Gamma,2.0,1907,2,12160,similarity
12,6,C1150,A450,Gamma,Alpha,0.0,4328,2,12160,similarity
13,6,C1150,C1350,Gamma,Gamma,3.0,2633,2,12160,similarity
14,6,C1150,A350,Gamma,Alpha,0.9999999999999998,1810,2,12160,similarity
8,7,B950,A50, Beta,Alpha,0.0,2146,2,12160,similarity
9,7,B950,A150, Beta,Alpha,0.0,906,2,12160,similarity
10,7,B950,B650, Beta,Beta,2.0,5419,2,12160,similarity
11,7,B950,C1450, Beta,Gamma,0.9999999999999998,2868,2,12160,similarity
12,7,B950,A450, Beta,Alpha,0.9999999999999998,2086,2,12160,similarity
13,7,B950,C1350, Beta,Gamma,2.0,2226,2,12160,similarity
14,7,B950,A350, Beta,Alpha,0.9999999999999998,1771,2,12160,similarity
9,8,A50,A150,Alpha,Alpha,2.0,6773,2,12160,similarity
10,8,A50,B650,Alpha,Beta,0.0,1922,2,12160,similarity
11,8,A50,C1450,Alpha,Gamma,0.0,1419,2,12160,similarity
12,8,A50,A450,Alpha,Alpha,0.9999999999999998,2209,2,12160,similarity
13,8,A50,C1350,Alpha,Gamma,0.0,1811,2,12160,similarity
14,8,A50,A350,Alpha,Alpha,0.9999999999999998,2129,2,12160,similarity
10,9,A150,B650,Alpha,Beta,0.0,2619,2,12160,similarity
11,9,A150,C1450,Alpha,Gamma,0.0,866,2,12160,similarity
12,9,A150,A450,Alpha,Alpha,0.9999999999999998,2199,2,12160,similarity
13,9,A150,C1350,Alpha,Gamma,0.0,2307,2,12160,similarity
14,9,A150,A350,Alpha,Alpha,0.9999999999999998,2613,2,12160,similarity
11,10,B650,C1450,Beta,Gamma,0.9999999999999998,3268,2,12160,similarity
12,10,B650,A450,Beta,Alpha,2.0,4370,2,12160,similarity
13,10,B650,C1350,Beta,Gamma,0.9999999999999998,1523,2,12160,similarity
14,10,B650,A350,Beta,Alpha,2.0,1531,2,12160,similarity
12,11,C1450,A450,Gamma,Alpha,0.0,3754,2,12160,similarity
13,11,C1450,C1350,Gamma,Gamma,5.0,4137,2,12160,similarity
14,11,C1450,A350,Gamma,Alpha,0.9999999999999998,3658,2,12160,similarity
13,12,A450,C1350,Alpha,Gamma,0.0,4838,2,12160,similarity
14,12,A450,A350,Alpha,Alpha,4.0,4395,2,12160,similarity
14,13,C1350,A350,Gamma,Alpha,0.9999999999999998,2355,2,12160,similarity
1,0,B850,A250,Alpha,Alpha,0.0,5924,2,12163,similarity
2,0,B850,A50,Beta,Alpha,0.0,2354,2,12163,similarity
3,0,B850,A450,Beta,Alpha,0.0,1502,2,12163,similarity
4,0,B850,C1150,Beta,Gamma,0.9999999999999998,4907,2,12163,similarity
5,0,B850,B950,Beta, Beta,5.0,2736,2,12163,similarity
6,0,B850,C1450,Beta,Gamma,0.0,2562,2,12163,similarity
7,0,B850,A350,Beta,Alpha,0.0,1634,2,12163,similarity
8,0,B850,C1350,Beta,Gamma,0.0,1018,2,12163,similarity
9,0,B850,B650,Beta,Beta,3.0,2455,2,12163,similarity
10,0,B850,B550,Beta,Beta,2.0,2201,2,12163,similarity
11,0,B850,C1050,Beta,Gamma,4.0,2273,2,12163,similarity
12,0,B850,C1250,Beta,Gamma,3.0,1963,2,12163,similarity
13,0,B850,A150,Beta,Alpha,0.0,1953,2,12163,similarity
14,0,B850,B750,Beta,Beta,6.0,3186,2,12163,similarity
2,1,A250,A50,Alpha,Alpha,0.0,2021,2,12163,similarity
3,1,A250,A450,Alpha,Alpha,0.0,3116,2,12163,similarity
4,1,A250,C1150,Alpha,Gamma,0.0,1417,2,12163,similarity
5,1,A250,B950,Alpha, Beta,0.0,834,2,12163,similarity
6,1,A250,C1450,Alpha,Gamma,0.0,653,2,12163,similarity
7,1,A250,A350,Alpha,Alpha,5.0,2537,2,12163,similarity
8,1,A250,C1350,Alpha,Gamma,0.0,2009,2,12163,similarity
9,1,A250,B650,Alpha,Beta,0.0,2475,2,12163,similarity
10,1,A250,B550,Alpha,Beta,0.0,835,2,12163,similarity
11,1,A250,C1050,Alpha,Gamma,0.0,595,2,12163,similarity
12,1,A250,C1250,Alpha,Gamma,0.0,712,2,12163,similarity
13,1,A250,A150,Alpha,Alpha,5.0,2663,2,12163,similarity
14,1,A250,B750,Alpha,Beta,0.0,1771,2,12163,similarity
3,2,A50,A450,Alpha,Alpha,0.0,831,2,12163,similarity
4,2,A50,C1150,Alpha,Gamma,0.0,757,2,12163,similarity
5,2,A50,B950,Alpha, Beta,0.0,1363,2,12163,similarity
6,2,A50,C1450,Alpha,Gamma,0.0,668,2,12163,similarity
7,2,A50,A350,Alpha,Alpha,0.0,946,2,12163,similarity
8,2,A50,C1350,Alpha,Gamma,0.0,616,2,12163,similarity
9,2,A50,B650,Alpha,Beta,0.0,1145,2,12163,similarity
10,2,A50,B550,Alpha,Beta,0.0,1103,2,12163,similarity
11,2,A50,C1050,Alpha,Gamma,0.0,722,2,12163,similarity
12,2,A50,C1250,Alpha,Gamma,0.0,717,2,12163,similarity
13,2,A50,A150,Alpha,Alpha,2.0,2742,2,12163,similarity
14,2,A50,B750,Alpha,Beta,0.0,2410,2,12163,similarity
4,3,A450,C1150,Alpha,Gamma,0.0,1786,2,12163,similarity
5,3,A450,B950,Alpha, Beta,0.0,754,2,12163,similarity
6,3,A450,C1450,Alpha,Gamma,0.0,755,2,12163,similarity
7,3,A450,A350,Alpha,Alpha,4.0,3081,2,12163,similarity
8,3,A450,C1350,Alpha,Gamma,0.0,2113,2,12163,similarity
9,3,A450,B650,Alpha,Beta,3.0,5133,2,12163,similarity
10,3,A450,B550,Alpha,Beta,6.0,4498,2,12163,similarity
11,3,A450,C1050,Alpha,Gamma,0.0,3602,2,12163,similarity
12,3,A450,C1250,Alpha,Gamma,0.0,657,2,12163,similarity
13,3,A450,A150,Alpha,Alpha,0.0,1532,2,12163,similarity
14,3,A450,B750,Alpha,Beta,0.0,2764,2,12163,similarity
5,4,C1150,B950,Gamma, Beta,6.0,5769,2,12163,similarity
6,4,C1150,C1450,Gamma,Gamma,0.0,4098,2,12163,similarity
7,4,C1150,A350,Gamma,Alpha,0.0,1202,2,12163,similarity
8,4,C1150,C1350,Gamma,Gamma,2.0,3344,2,12163,similarity
9,4,C1150,B650,Gamma,Beta,0.9999999999999998,2426,2,12163,similarity
10,4,C1150,B550,Gamma,Beta,0.0,1987,2,12163,similarity
11,4,C1150,C1050,Gamma,Gamma,6.0,2487,2,12163,similarity
12,4,C1150,C1250,Gamma,Gamma,6.0,1052,2,12163,similarity
13,4,C1150,A150,Gamma,Alpha,0.0,2273,2,12163,similarity
14,4,C1150,B750,Gamma,Beta,0.0,1899,2,12163,similarity
6,5,B950,C1450, Beta,Gamma,0.0,1274,2,12163,similarity
7,5,B950,A350, Beta,Alpha,0.0,1491,2,12163,similarity
8,5,B950,C1350, Beta,Gamma,0.0,1459,2,12163,similarity
9,5,B950,B650, Beta,Beta,0.9999999999999998,1971,2,12163,similarity
10,5,B950,B550, Beta,Beta,0.0,1562,2,12163,similarity
11,5,B950,C1050, Beta,Gamma,6.0,2345,2,12163,similarity
12,5,B950,C1250, Beta,Gamma,5.0,2962,2,12163,similarity
13,5,B950,A150, Beta,Alpha,0.0,1835,2,12163,similarity
14,5,B950,B750, Beta,Beta,5.0,3522,2,12163,similarity
7,6,C1450,A350,Gamma,Alpha,0.0,1793,2,12163,similarity
8,6,C1450,C1350,Gamma,Gamma,6.0,8626,2,12163,similarity
9,6,C1450,B650,Gamma,Beta,0.0,2750,2,12163,similarity
10,6,C1450,B550,Gamma,Beta,0.0,624,2,12163,similarity
11,6,C1450,C1050,Gamma,Gamma,0.0,1282,2,12163,similarity
12,6,C1450,C1250,Gamma,Gamma,4.0,2875,2,12163,similarity
13,6,C1450,A150,Gamma,Alpha,0.0,2242,2,12163,similarity
14,6,C1450,B750,Gamma,Beta,0.0,1132,2,12163,similarity
8,7,A350,C1350,Alpha,Gamma,0.0,738,2,12163,similarity
9,7,A350,B650,Alpha,Beta,0.9999999999999998,2626,2,12163,similarity
10,7,A350,B550,Alpha,Beta,2.0,2587,2,12163,similarity
11,7,A350,C1050,Alpha,Gamma,0.0,1554,2,12163,similarity
12,7,A350,C1250,Alpha,Gamma,0.0,451,2,12163,similarity
13,7,A350,A150,Alpha,Alpha,0.0,1278,2,12163,similarity
14,7,A350,B750,Alpha,Beta,0.0,919,2,12163,similarity
9,8,C1350,B650,Gamma,Beta,0.0,1074,2,12163,similarity
10,8,C1350,B550,Gamma,Beta,0.0,741,2,12163,similarity
11,8,C1350,C1050,Gamma,Gamma,0.0,2089,2,12163,similarity
12,8,C1350,C1250,Gamma,Gamma,6.0,3787,2,12163,similarity
13,8,C1350,A150,Gamma,Alpha,0.0,2178,2,12163,similarity
14,8,C1350,B750,Gamma,Beta,0.0,3516,2,12163,similarity
10,9,B650,B550,Beta,Beta,6.0,2985,2,12163,similarity
11,9,B650,C1050,Beta,Gamma,2.0,2506,2,12163,similarity
12,9,B650,C1250,Beta,Gamma,0.0,2826,2,12163,similarity
13,9,B650,A150,Beta,Alpha,0.0,1043,2,12163,similarity
14,9,B650,B750,Beta,Beta,6.0,4433,2,12163,similarity
11,10,B550,C1050,Beta,Gamma,0.0,2425,2,12163,similarity
12,10,B550,C1250,Beta,Gamma,0.0,578,2,12163,similarity
13,10,B550,A150,Beta,Alpha,0.0,770,2,12163,similarity
14,10,B550,B750,Beta,Beta,0.0,2397,2,12163,similarity
12,11,C1050,C1250,Gamma,Gamma,4.0,6138,2,12163,similarity
13,11,C1050,A150,Gamma,Alpha,0.0,1754,2,12163,similarity
14,11,C1050,B750,Gamma,Beta,0.0,1539,2,12163,similarity
13,12,C1250,A150,Gamma,Alpha,0.0,907,2,12163,similarity
14,12,C1250,B750,Gamma,Beta,0.0,874,2,12163,similarity
14,13,A150,B750,Alpha,Beta,0.0,1171,2,12163,similarity
1,0,A250,B750,Beta,Beta,0.0,4873,2,12185,similarity
2,0,A250,A450,Alpha,Alpha,0.9999999999999998,3642,2,12185,similarity
3,0,A250,B850,Alpha,Beta,0.0,2987,2,12185,similarity
4,0,A250,A350,Alpha,Alpha,3.0,2122,2,12185,similarity
5,0,A250,B650,Alpha,Beta,0.9999999999999998,2074,2,12185,similarity
6,0,A250,A50,Alpha,Alpha,0.9999999999999998,1586,2,12185,similarity
7,0,A250,C1350,Alpha,Gamma,0.0,2155,2,12185,similarity
8,0,A250,C1150,Alpha,Gamma,0.0,747,2,12185,similarity
9,0,A250,C1050,Alpha,Gamma,0.0,667,2,12185,similarity
10,0,A250,B550,Alpha,Beta,2.0,2248,2,12185,similarity
11,0,A250,C1450,Alpha,Gamma,0.0,2219,2,12185,similarity
12,0,A250,B950,Alpha, Beta,0.0,823,2,12185,similarity
13,0,A250,A150,Alpha,Alpha,3.0,2362,2,12185,similarity
14,0,A250,C1250,Alpha,Gamma,0.0,2851,2,12185,similarity
2,1,B750,A450,Beta,Alpha,0.0,3244,2,12185,similarity
3,1,B750,B850,Beta,Beta,5.0,2650,2,12185,similarity
4,1,B750,A350,Beta,Alpha,0.9999999999999998,1930,2,12185,similarity
5,1,B750,B650,Beta,Beta,5.0,3864,2,12185,similarity
6,1,B750,A50,Beta,Alpha,0.0,1765,2,12185,similarity
7,1,B750,C1350,Beta,Gamma,3.0,3373,2,12185,similarity
8,1,B750,C1150,Beta,Gamma,4.0,1643,2,12185,similarity
9,1,B750,C1050,Beta,Gamma,4.0,2260,2,12185,similarity
10,1,B750,B550,Beta,Beta,4.0,1057,2,12185,similarity
11,1,B750,C1450,Beta,Gamma,2.0,2210,2,12185,similarity
12,1,B750,B950,Beta, Beta,3.0,1699,2,12185,similarity
13,1,B750,A150,Beta,Alpha,0.0,2298,2,12185,similarity
14,1,B750,C1250,Beta,Gamma,4.0,2298,2,12185,similarity
3,2,A450,B850,Alpha,Beta,3.0,2123,2,12185,similarity
4,2,A450,A350,Alpha,Alpha,5.0,2126,2,12185,similarity
5,2,A450,B650,Alpha,Beta,5.0,2138,2,12185,similarity
6,2,A450,A50,Alpha,Alpha,0.0,1666,2,12185,similarity
7,2,A450,C1350,Alpha,Gamma,0.0,1552,2,12185,similarity
8,2,A450,C1150,Alpha,Gamma,0.0,1098,2,12185,similarity
9,2,A450,C1050,Alpha,Gamma,0.0,571,2,12185,similarity
10,2,A450,B550,Alpha,Beta,5.0,2323,2,12185,similarity
11,2,A450,C1450,Alpha,Gamma,0.9999999999999998,2139,2,12185,similarity
12,2,A450,B950,Alpha, Beta,2.0,2676,2,12185,similarity
13,2,A450,A150,Alpha,Alpha,0.9999999999999998,2203,2,12185,similarity
14,2,A450,C1250,Alpha,Gamma,0.9999999999999998,1196,2,12185,similarity
4,3,B850,A350,Beta,Alpha,0.9999999999999998,756,2,12185,similarity
5,3,B850,B650,Beta,Beta,4.0,2379,2,12185,similarity
6,3,B850,A50,Beta,Alpha,0.0,1906,2,12185,similarity
7,3,B850,C1350,Beta,Gamma,2.0,3125,2,12185,similarity
8,3,B850,C1150,Beta,Gamma,2.0,1597,2,12185,similarity
9,3,B850,C1050,Beta,Gamma,3.0,2091,2,12185,similarity
10,3,B850,B550,Beta,Beta,3.0,1321,2,12185,similarity
11,3,B850,C1450,Beta,Gamma,0.9999999999999998,1911,2,12185,similarity
12,3,B850,B950,Beta, Beta,6.0,3587,2,12185,similarity
13,3,B850,A150,Beta,Alpha,0.9999999999999998,2963,2,12185,similarity
14,3,B850,C1250,Beta,Gamma,0.9999999999999998,1357,2,12185,similarity
5,4,A350,B650,Alpha,Beta,2.0,2124,2,12185,similarity
6,4,A350,A50,Alpha,Alpha,0.0,2172,2,12185,similarity
7,4,A350,C1350,Alpha,Gamma,0.0,754,2,12185,similarity
8,4,A350,C1150,Alpha,Gamma,0.0,3225,2,12185,similarity
9,4,A350,C1050,Alpha,Gamma,0.9999999999999998,1907,2,12185,similarity
10,4,A350,B550,Alpha,Beta,4.0,2068,2,12185,similarity
11,4,A350,C1450,Alpha,Gamma,0.9999999999999998,3210,2,12185,similarity
12,4,A350,B950,Alpha, Beta,0.9999999999999998,1472,2,12185,similarity
13,4,A350,A150,Alpha,Alpha,0.9999999999999998,809,2,12185,similarity
14,4,A350,C1250,Alpha,Gamma,0.9999999999999998,1272,2,12185,similarity
6,5,B650,A50,Beta,Alpha,0.0,2490,2,12185,similarity
7,5,B650,C1350,Beta,Gamma,0.9999999999999998,2425,2,12185,similarity
8,5,B650,C1150,Beta,Gamma,3.0,2057,2,12185,similarity
9,5,B650,C1050,Beta,Gamma,2.0,2043,2,12185,similarity
10,5,B650,B550,Beta,Beta,5.0,2514,2,12185,similarity
11,5,B650,C1450,Beta,Gamma,2.0,3130,2,12185,similarity
12,5,B650,B950,Beta, Beta,2.0,868,2,12185,similarity
13,5,B650,A150,Beta,Alpha,2.0,2498,2,12185,similarity
14,5,B650,C1250,Beta,Gamma,3.0,2709,2,12185,similarity
7,6,A50,C1350,Alpha,Gamma,0.0,1965,2,12185,similarity
8,6,A50,C1150,Alpha,Gamma,0.0,762,2,12185,similarity
9,6,A50,C1050,Alpha,Gamma,0.0,507,2,12185,similarity
10,6,A50,B550,Alpha,Beta,0.0,489,2,12185,similarity
11,6,A50,C1450,Alpha,Gamma,0.0,724,2,12185,similarity
12,6,A50,B950,Alpha, Beta,0.0,524,2,12185,similarity
13,6,A50,A150,Alpha,Alpha,2.0,1931,2,12185,similarity
14,6,A50,C1250,Alpha,Gamma,0.0,1797,2,12185,similarity
8,7,C1350,C1150,Gamma,Gamma,5.0,2507,2,12185,similarity
9,7,C1350,C1050,Gamma,Gamma,5.0,594,2,12185,similarity
10,7,C1350,B550,Gamma,Beta,2.0,2588,2,12185,similarity
11,7,C1350,C1450,Gamma,Gamma,6.0,2427,2,12185,similarity
12,7,C1350,B950,Gamma, Beta,4.0,2290,2,12185,similarity
13,7,C1350,A150,Gamma,Alpha,0.9999999999999998,2877,2,12185,similarity
14,7,C1350,C1250,Gamma,Gamma,5.0,2200,2,12185,similarity
9,8,C1150,C1050,Gamma,Gamma,5.0,2860,2,12185,similarity
10,8,C1150,B550,Gamma,Beta,3.0,1907,2,12185,similarity
11,8,C1150,C1450,Gamma,Gamma,5.0,3364,2,12185,similarity
12,8,C1150,B950,Gamma, Beta,5.0,1694,2,12185,similarity
13,8,C1150,A150,Gamma,Alpha,0.9999999999999998,1852,2,12185,similarity
14,8,C1150,C1250,Gamma,Gamma,6.0,2003,2,12185,similarity
10,9,C1050,B550,Gamma,Beta,3.0,2115,2,12185,similarity
11,9,C1050,C1450,Gamma,Gamma,4.0,4874,2,12185,similarity
12,9,C1050,B950,Gamma, Beta,5.0,2858,2,12185,similarity
13,9,C1050,A150,Gamma,Alpha,0.9999999999999998,2763,2,12185,similarity
14,9,C1050,C1250,Gamma,Gamma,6.0,2210,2,12185,similarity
11,10,B550,C1450,Beta,Gamma,2.0,2426,2,12185,similarity
12,10,B550,B950,Beta, Beta,2.0,2043,2,12185,similarity
13,10,B550,A150,Beta,Alpha,0.9999999999999998,2102,2,12185,similarity
14,10,B550,C1250,Beta,Gamma,0.9999999999999998,1418,2,12185,similarity
12,11,C1450,B950,Gamma, Beta,0.9999999999999998,3156,2,12185,similarity
13,11,C1450,A150,Gamma,Alpha,0.9999999999999998,1012,2,12185,similarity
14,11,C1450,C1250,Gamma,Gamma,5.0,2986,2,12185,similarity
13,12,B950,A150, Beta,Alpha,0.9999999999999998,2347,2,12185,similarity
14,12,B950,C1250, Beta,Gamma,0.9999999999999998,802,2,12185,similarity
14,13,A150,C1250,Alpha,Gamma,0.9999999999999998,1592,2,12185,similarity
1,0,B950,C1350,Gamma,Gamma,4.0,10770,2,12188,similarity
2,0,B950,A350, Beta,Alpha,0.9999999999999998,8164,2,12188,similarity
3,0,B950,A450, Beta,Alpha,2.0,5001,2,12188,similarity
4,0,B950,C1050, Beta,Gamma,6.0,3088,2,12188,similarity
5,0,B950,C1250, Beta,Gamma,6.0,1650,2,12188,similarity
6,0,B950,A250, Beta,Alpha,0.9999999999999998,6377,2,12188,similarity
7,0,B950,A50, Beta,Alpha,0.0,2254,2,12188,similarity
8,0,B950,C1150, Beta,Gamma,6.0,4624,2,12188,similarity
9,0,B950,C1450, Beta,Gamma,4.0,6086,2,12188,similarity
10,0,B950,B550, Beta,Beta,5.0,6291,2,12188,similarity
11,0,B950,B750, Beta,Beta,5.0,1187,2,12188,similarity
12,0,B950,B850, Beta,Beta,5.0,923,2,12188,similarity
13,0,B950,B650, Beta,Beta,5.0,1925,2,12188,similarity
14,0,B950,A150, Beta,Alpha,0.0,2912,2,12188,similarity
2,1,C1350,A350,Gamma,Alpha,0.0,2298,2,12188,similarity
3,1,C1350,A450,Gamma,Alpha,2.0,2933,2,12188,similarity
4,1,C1350,C1050,Gamma,Gamma,6.0,4342,2,12188,similarity
5,1,C1350,C1250,Gamma,Gamma,6.0,1429,2,12188,similarity
6,1,C1350,A250,Gamma,Alpha,0.0,3148,2,12188,similarity
7,1,C1350,A50,Gamma,Alpha,0.0,652,2,12188,similarity
8,1,C1350,C1150,Gamma,Gamma,6.0,2928,2,12188,similarity
9,1,C1350,C1450,Gamma,Gamma,6.0,1554,2,12188,similarity
10,1,C1350,B550,Gamma,Beta,4.0,2996,2,12188,similarity
11,1,C1350,B750,Gamma,Beta,4.0,5827,2,12188,similarity
12,1,C1350,B850,Gamma,Beta,4.0,1203,2,12188,similarity
13,1,C1350,B650,Gamma,Beta,2.0,6251,2,12188,similarity
14,1,C1350,A150,Gamma,Alpha,0.0,2506,2,12188,similarity
3,2,A350,A450,Alpha,Alpha,6.0,4224,2,12188,similarity
4,2,A350,C1050,Alpha,Gamma,0.9999999999999998,7043,2,12188,similarity
5,2,A350,C1250,Alpha,Gamma,0.9999999999999998,1507,2,12188,similarity
6,2,A350,A250,Alpha,Alpha,6.0,2724,2,12188,similarity
7,2,A350,A50,Alpha,Alpha,5.0,3920,2,12188,similarity
8,2,A350,C1150,Alpha,Gamma,0.9999999999999998,5546,2,12188,similarity
9,2,A350,C1450,Alpha,Gamma,0.0,2250,2,12188,similarity
10,2,A350,B550,Alpha,Beta,5.0,4243,2,12188,similarity
11,2,A350,B750,Alpha,Beta,3.0,3659,2,12188,similarity
12,2,A350,B850,Alpha,Beta,3.0,1331,2,12188,similarity
13,2,A350,B650,Alpha,Beta,3.0,2737,2,12188,similarity
14,2,A350,A150,Alpha,Alpha,5.0,7751,2,12188,similarity
4,3,A450,C1050,Alpha,Gamma,3.0,4835,2,12188,similarity
5,3,A450,C1250,Alpha,Gamma,0.9999999999999998,2611,2,12188,similarity
6,3,A450,A250,Alpha,Alpha,5.0,3493,2,12188,similarity
7,3,A450,A50,Alpha,Alpha,2.0,5258,2,12188,similarity
8,3,A450,C1150,Alpha,Gamma,2.0,4162,2,12188,similarity
9,3,A450,C1450,Alpha,Gamma,0.0,4464,2,12188,similarity
10,3,A450,B550,Alpha,Beta,5.0,3517,2,12188,similarity
11,3,A450,B750,Alpha,Beta,5.0,1482,2,12188,similarity
12,3,A450,B850,Alpha,Beta,5.0,5923,2,12188,similarity
13,3,A450,B650,Alpha,Beta,5.0,1706,2,12188,similarity
14,3,A450,A150,Alpha,Alpha,5.0,1774,2,12188,similarity
5,4,C1050,C1250,Gamma,Gamma,6.0,3370,2,12188,similarity
6,4,C1050,A250,Gamma,Alpha,0.9999999999999998,3291,2,12188,similarity
7,4,C1050,A50,Gamma,Alpha,0.0,2312,2,12188,similarity
8,4,C1050,C1150,Gamma,Gamma,6.0,2684,2,12188,similarity
9,4,C1050,C1450,Gamma,Gamma,6.0,2306,2,12188,similarity
10,4,C1050,B550,Gamma,Beta,5.0,4609,2,12188,similarity
11,4,C1050,B750,Gamma,Beta,5.0,4008,2,12188,similarity
12,4,C1050,B850,Gamma,Beta,5.0,1655,2,12188,similarity
13,4,C1050,B650,Gamma,Beta,5.0,2068,2,12188,similarity
14,4,C1050,A150,Gamma,Alpha,0.9999999999999998,3311,2,12188,similarity
6,5,C1250,A250,Gamma,Alpha,0.0,3275,2,12188,similarity
7,5,C1250,A50,Gamma,Alpha,0.0,1884,2,12188,similarity
8,5,C1250,C1150,Gamma,Gamma,6.0,3181,2,12188,similarity
9,5,C1250,C1450,Gamma,Gamma,6.0,883,2,12188,similarity
10,5,C1250,B550,Gamma,Beta,2.0,6003,2,12188,similarity
11,5,C1250,B750,Gamma,Beta,4.0,7807,2,12188,similarity
12,5,C1250,B850,Gamma,Beta,5.0,1995,2,12188,similarity
13,5,C1250,B650,Gamma,Beta,5.0,1905,2,12188,similarity
14,5,C1250,A150,Gamma,Alpha,0.9999999999999998,2711,2,12188,similarity
7,6,A250,A50,Alpha,Alpha,6.0,3752,2,12188,similarity
8,6,A250,C1150,Alpha,Gamma,0.9999999999999998,5724,2,12188,similarity
9,6,A250,C1450,Alpha,Gamma,0.0,2908,2,12188,similarity
10,6,A250,B550,Alpha,Beta,5.0,6177,2,12188,similarity
11,6,A250,B750,Alpha,Beta,5.0,1496,2,12188,similarity
12,6,A250,B850,Alpha,Beta,2.0,5512,2,12188,similarity
13,6,A250,B650,Alpha,Beta,3.0,2461,2,12188,similarity
14,6,A250,A150,Alpha,Alpha,6.0,2163,2,12188,similarity
8,7,A50,C1150,Alpha,Gamma,0.0,3651,2,12188,similarity
9,7,A50,C1450,Alpha,Gamma,0.0,906,2,12188,similarity
10,7,A50,B550,Alpha,Beta,3.0,4002,2,12188,similarity
11,7,A50,B750,Alpha,Beta,2.0,2729,2,12188,similarity
12,7,A50,B850,Alpha,Beta,2.0,709,2,12188,similarity
13,7,A50,B650,Alpha,Beta,2.0,2112,2,12188,similarity
14,7,A50,A150,Alpha,Alpha,6.0,2115,2,12188,similarity
9,8,C1150,C1450,Gamma,Gamma,5.0,2810,2,12188,similarity
10,8,C1150,B550,Gamma,Beta,4.0,3328,2,12188,similarity
11,8,C1150,B750,Gamma,Beta,5.0,3823,2,12188,similarity
12,8,C1150,B850,Gamma,Beta,5.0,1097,2,12188,similarity
13,8,C1150,B650,Gamma,Beta,5.0,1819,2,12188,similarity
14,8,C1150,A150,Gamma,Alpha,0.0,3003,2,12188,similarity
10,9,C1450,B550,Gamma,Beta,3.0,5389,2,12188,similarity
11,9,C1450,B750,Gamma,Beta,4.0,8835,2,12188,similarity
12,9,C1450,B850,Gamma,Beta,4.0,2220,2,12188,similarity
13,9,C1450,B650,Gamma,Beta,4.0,1049,2,12188,similarity
14,9,C1450,A150,Gamma,Alpha,0.0,2864,2,12188,similarity
11,10,B550,B750,Beta,Beta,5.0,2978,2,12188,similarity
12,10,B550,B850,Beta,Beta,5.0,657,2,12188,similarity
13,10,B550,B650,Beta,Beta,5.0,1479,2,12188,similarity
14,10,B550,A150,Beta,Alpha,4.0,4882,2,12188,similarity
12,11,B750,B850,Beta,Beta,6.0,2428,2,12188,similarity
13,11,B750,B650,Beta,Beta,6.0,785,2,12188,similarity
14,11,B750,A150,Beta,Alpha,2.0,2763,2,12188,similarity
13,12,B850,B650,Beta,Beta,6.0,4225,2,12188,similarity
14,12,B850,A150,Beta,Alpha,2.0,2840,2,12188,similarity
14,13,B650,A150,Beta,Alpha,2.0,1372,2,12188,similarity
1,0,A50,A450,Alpha,Alpha,0.0,4395,2,12191,similarity
2,0,A50,A350,Alpha,Alpha,0.0,2491,2,12191,similarity
3,0,A50,B750,Alpha,Beta,0.0,973,2,12191,similarity
4,0,A50,A250,Alpha,Alpha,0.9999999999999998,3084,2,12191,similarity
5,0,A50,C1150,Alpha,Gamma,0.0,1741,2,12191,similarity
6,0,A50,A150,Alpha,Alpha,4.0,3907,2,12191,similarity
7,0,A50,B850,Alpha,Beta,0.9999999999999998,2449,2,12191,similarity
8,0,A50,C1050,Alpha,Gamma,0.0,1392,2,12191,similarity
9,0,A50,C1250,Alpha,Gamma,0.0,1203,2,12191,similarity
10,0,A50,B950,Alpha, Beta,0.0,873,2,12191,similarity
11,0,A50,C1350,Alpha,Gamma,0.0,563,2,12191,similarity
12,0,A50,B650,Alpha,Beta,0.0,1236,2,12191,similarity
13,0,A50,C1450,Alpha,Gamma,0.0,632,2,12191,similarity
14,0,A50,B550,Alpha,Beta,0.0,704,2,12191,similarity
2,1,A450,A350,Alpha,Alpha,5.0,2633,2,12191,similarity
3,1,A450,B750,Alpha,Beta,4.0,1850,2,12191,similarity
4,1,A450,A250,Alpha,Alpha,4.0,1427,2,12191,similarity
5,1,A450,C1150,Alpha,Gamma,3.0,1698,2,12191,similarity
6,1,A450,A150,Alpha,Alpha,4.0,1554,2,12191,similarity
7,1,A450,B850,Alpha,Beta,5.0,2116,2,12191,similarity
8,1,A450,C1050,Alpha,Gamma,4.0,1441,2,12191,similarity
9,1,A450,C1250,Alpha,Gamma,3.0,1875,2,12191,similarity
10,1,A450,B950,Alpha, Beta,3.0,1226,2,12191,similarity
11,1,A450,C1350,Alpha,Gamma,3.0,1067,2,12191,similarity
12,1,A450,B650,Alpha,Beta,5.0,2369,2,12191,similarity
13,1,A450,C1450,Alpha,Gamma,3.0,1515,2,12191,similarity
14,1,A450,B550,Alpha,Beta,5.0,1771,2,12191,similarity
3,2,A350,B750,Alpha,Beta,3.0,1683,2,12191,similarity
4,2,A350,A250,Alpha,Alpha,5.0,1851,2,12191,similarity
5,2,A350,C1150,Alpha,Gamma,2.0,1820,2,12191,similarity
6,2,A350,A150,Alpha,Alpha,4.0,1850,2,12191,similarity
7,2,A350,B850,Alpha,Beta,3.0,1379,2,12191,similarity
8,2,A350,C1050,Alpha,Gamma,2.0,1539,2,12191,similarity
9,2,A350,C1250,Alpha,Gamma,2.0,1139,2,12191,similarity
10,2,A350,B950,Alpha, Beta,2.0,883,2,12191,similarity
11,2,A350,C1350,Alpha,Gamma,2.0,1343,2,12191,similarity
12,2,A350,B650,Alpha,Beta,5.0,2339,2,12191,similarity
13,2,A350,C1450,Alpha,Gamma,2.0,3643,2,12191,similarity
14,2,A350,B550,Alpha,Beta,4.0,2066,2,12191,similarity
4,3,B750,A250,Beta,Alpha,3.0,3107,2,12191,similarity
5,3,B750,C1150,Beta,Gamma,5.0,4339,2,12191,similarity
6,3,B750,A150,Beta,Alpha,2.0,2690,2,12191,similarity
7,3,B750,B850,Beta,Beta,5.0,2403,2,12191,similarity
8,3,B750,C1050,Beta,Gamma,4.0,1378,2,12191,similarity
9,3,B750,C1250,Beta,Gamma,4.0,1236,2,12191,similarity
10,3,B750,B950,Beta, Beta,5.0,2025,2,12191,similarity
11,3,B750,C1350,Beta,Gamma,3.0,1682,2,12191,similarity
12,3,B750,B650,Beta,Beta,5.0,1866,2,12191,similarity
13,3,B750,C1450,Beta,Gamma,2.0,1884,2,12191,similarity
14,3,B750,B550,Beta,Beta,5.0,2427,2,12191,similarity
5,4,A250,C1150,Alpha,Gamma,3.0,3330,2,12191,similarity
6,4,A250,A150,Alpha,Alpha,5.0,3428,2,12191,similarity
7,4,A250,B850,Alpha,Beta,3.0,2306,2,12191,similarity
8,4,A250,C1050,Alpha,Gamma,2.0,2083,2,12191,similarity
9,4,A250,C1250,Alpha,Gamma,3.0,1559,2,12191,similarity
10,4,A250,B950,Alpha, Beta,3.0,923,2,12191,similarity
11,4,A250,C1350,Alpha,Gamma,2.0,1946,2,12191,similarity
12,4,A250,B650,Alpha,Beta,3.0,2454,2,12191,similarity
13,4,A250,C1450,Alpha,Gamma,0.9999999999999998,1292,2,12191,similarity
14,4,A250,B550,Alpha,Beta,5.0,4049,2,12191,similarity
6,5,C1150,A150,Gamma,Alpha,2.0,2354,2,12191,similarity
7,5,C1150,B850,Gamma,Beta,5.0,1812,2,12191,similarity
8,5,C1150,C1050,Gamma,Gamma,5.0,1772,2,12191,similarity
9,5,C1150,C1250,Gamma,Gamma,5.0,1067,2,12191,similarity
10,5,C1150,B950,Gamma, Beta,5.0,897,2,12191,similarity
11,5,C1150,C1350,Gamma,Gamma,5.0,779,2,12191,similarity
12,5,C1150,B650,Gamma,Beta,4.0,2246,2,12191,similarity
13,5,C1150,C1450,Gamma,Gamma,4.0,2089,2,12191,similarity
14,5,C1150,B550,Gamma,Beta,3.0,2077,2,12191,similarity
7,6,A150,B850,Alpha,Beta,2.0,1371,2,12191,similarity
8,6,A150,C1050,Alpha,Gamma,2.0,851,2,12191,similarity
9,6,A150,C1250,Alpha,Gamma,2.0,931,2,12191,similarity
10,6,A150,B950,Alpha, Beta,2.0,1041,2,12191,similarity
11,6,A150,C1350,Alpha,Gamma,0.9999999999999998,1675,2,12191,similarity
12,6,A150,B650,Alpha,Beta,2.0,1450,2,12191,similarity
13,6,A150,C1450,Alpha,Gamma,0.9999999999999998,1802,2,12191,similarity
14,6,A150,B550,Alpha,Beta,2.0,2018,2,12191,similarity
8,7,B850,C1050,Beta,Gamma,4.0,1555,2,12191,similarity
9,7,B850,C1250,Beta,Gamma,5.0,1666,2,12191,similarity
10,7,B850,B950,Beta, Beta,5.0,785,2,12191,similarity
11,7,B850,C1350,Beta,Gamma,4.0,2298,2,12191,similarity
12,7,B850,B650,Beta,Beta,5.0,1700,2,12191,similarity
13,7,B850,C1450,Beta,Gamma,4.0,1563,2,12191,similarity
14,7,B850,B550,Beta,Beta,4.0,1250,2,12191,similarity
9,8,C1050,C1250,Gamma,Gamma,4.0,1483,2,12191,similarity
10,8,C1050,B950,Gamma, Beta,5.0,1732,2,12191,similarity
11,8,C1050,C1350,Gamma,Gamma,4.0,2554,2,12191,similarity
12,8,C1050,B650,Gamma,Beta,4.0,1298,2,12191,similarity
13,8,C1050,C1450,Gamma,Gamma,4.0,1602,2,12191,similarity
14,8,C1050,B550,Gamma,Beta,3.0,2083,2,12191,similarity
10,9,C1250,B950,Gamma, Beta,3.0,2915,2,12191,similarity
11,9,C1250,C1350,Gamma,Gamma,4.0,2581,2,12191,similarity
12,9,C1250,B650,Gamma,Beta,3.0,1690,2,12191,similarity
13,9,C1250,C1450,Gamma,Gamma,3.0,1294,2,12191,similarity
14,9,C1250,B550,Gamma,Beta,3.0,1177,2,12191,similarity
11,10,B950,C1350, Beta,Gamma,3.0,691,2,12191,similarity
12,10,B950,B650, Beta,Beta,3.0,1435,2,12191,similarity
13,10,B950,C1450, Beta,Gamma,3.0,1172,2,12191,similarity
14,10,B950,B550, Beta,Beta,3.0,1363,2,12191,similarity
12,11,C1350,B650,Gamma,Beta,3.0,588,2,12191,similarity
13,11,C1350,C1450,Gamma,Gamma,5.0,3112,2,12191,similarity
14,11,C1350,B550,Gamma,Beta,2.0,2402,2,12191,similarity
13,12,B650,C1450,Beta,Gamma,2.0,1332,2,12191,similarity
14,12,B650,B550,Beta,Beta,5.0,1907,2,12191,similarity
14,13,C1450,B550,Gamma,Beta,2.0,1732,2,12191,similarity
1,0,C1450,A150,Alpha,Alpha,0.0,9089,2,12192,similarity
2,0,C1450,C1050,Gamma,Gamma,0.0,11780,2,12192,similarity
3,0,C1450,C1150,Gamma,Gamma,6.0,6744,2,12192,similarity
4,0,C1450,B950,Gamma, Beta,0.0,3832,2,12192,similarity
5,0,C1450,C1350,Gamma,Gamma,6.0,4199,2,12192,similarity
6,0,C1450,B550,Gamma,Beta,0.0,3843,2,12192,similarity
7,0,C1450,B850,Gamma,Beta,0.0,5025,2,12192,similarity
8,0,C1450,B650,Gamma,Beta,0.0,1943,2,12192,similarity
9,0,C1450,B750,Gamma,Beta,0.0,1391,2,12192,similarity
10,0,C1450,C1250,Gamma,Gamma,6.0,3358,2,12192,similarity
11,0,C1450,A250,Gamma,Alpha,0.0,2503,2,12192,similarity
12,0,C1450,A450,Gamma,Alpha,0.0,1574,2,12192,similarity
13,0,C1450,A350,Gamma,Alpha,0.0,5474,2,12192,similarity
14,0,C1450,A50,Gamma,Alpha,0.0,805,2,12192,similarity
2,1,A150,C1050,Alpha,Gamma,0.0,3588,2,12192,similarity
3,1,A150,C1150,Alpha,Gamma,0.0,4467,2,12192,similarity
4,1,A150,B950,Alpha, Beta,0.0,1030,2,12192,similarity
5,1,A150,C1350,Alpha,Gamma,0.0,988,2,12192,similarity
6,1,A150,B550,Alpha,Beta,6.0,4091,2,12192,similarity
7,1,A150,B850,Alpha,Beta,0.0,4604,2,12192,similarity
8,1,A150,B650,Alpha,Beta,0.0,2195,2,12192,similarity
9,1,A150,B750,Alpha,Beta,0.0,1026,2,12192,similarity
10,1,A150,C1250,Alpha,Gamma,0.0,551,2,12192,similarity
11,1,A150,A250,Alpha,Alpha,6.0,2288,2,12192,similarity
12,1,A150,A450,Alpha,Alpha,6.0,2709,2,12192,similarity
13,1,A150,A350,Alpha,Alpha,6.0,1070,2,12192,similarity
14,1,A150,A50,Alpha,Alpha,6.0,2699,2,12192,similarity
3,2,C1050,C1150,Gamma,Gamma,6.0,26098,2,12192,similarity
4,2,C1050,B950,Gamma, Beta,6.0,3433,2,12192,similarity
5,2,C1050,C1350,Gamma,Gamma,0.0,12344,2,12192,similarity
6,2,C1050,B550,Gamma,Beta,6.0,4947,2,12192,similarity
7,2,C1050,B850,Gamma,Beta,6.0,1549,2,12192,similarity
8,2,C1050,B650,Gamma,Beta,6.0,1854,2,12192,similarity
9,2,C1050,B750,Gamma,Beta,6.0,1244,2,12192,similarity
10,2,C1050,C1250,Gamma,Gamma,0.0,13760,2,12192,similarity
11,2,C1050,A250,Gamma,Alpha,0.0,8381,2,12192,similarity
12,2,C1050,A450,Gamma,Alpha,0.0,5266,2,12192,similarity
13,2,C1050,A350,Gamma,Alpha,0.0,2790,2,12192,similarity
14,2,C1050,A50,Gamma,Alpha,0.0,2317,2,12192,similarity
4,3,C1150,B950,Gamma, Beta,0.0,5783,2,12192,similarity
5,3,C1150,C1350,Gamma,Gamma,6.0,4110,2,12192,similarity
6,3,C1150,B550,Gamma,Beta,0.0,15206,2,12192,similarity
7,3,C1150,B850,Gamma,Beta,0.0,5397,2,12192,similarity
8,3,C1150,B650,Gamma,Beta,0.0,7350,2,12192,similarity
9,3,C1150,B750,Gamma,Beta,0.0,2327,2,12192,similarity
10,3,C1150,C1250,Gamma,Gamma,6.0,6495,2,12192,similarity
11,3,C1150,A250,Gamma,Alpha,0.0,3945,2,12192,similarity
12,3,C1150,A450,Gamma,Alpha,0.0,6665,2,12192,similarity
13,3,C1150,A350,Gamma,Alpha,0.0,1820,2,12192,similarity
14,3,C1150,A50,Gamma,Alpha,0.0,6402,2,12192,similarity
5,4,B950,C1350, Beta,Gamma,0.0,7763,2,12192,similarity
6,4,B950,B550, Beta,Beta,6.0,7409,2,12192,similarity
7,4,B950,B850, Beta,Beta,6.0,2476,2,12192,similarity
8,4,B950,B650, Beta,Beta,6.0,984,2,12192,similarity
9,4,B950,B750, Beta,Beta,6.0,957,2,12192,similarity
10,4,B950,C1250, Beta,Gamma,0.0,4446,2,12192,similarity
11,4,B950,A250, Beta,Alpha,0.0,4994,2,12192,similarity
12,4,B950,A450, Beta,Alpha,0.0,13905,2,12192,similarity
13,4,B950,A350, Beta,Alpha,0.0,2505,2,12192,similarity
14,4,B950,A50, Beta,Alpha,0.0,1709,2,12192,similarity
6,5,C1350,B550,Gamma,Beta,0.0,2677,2,12192,similarity
7,5,C1350,B850,Gamma,Beta,0.0,1956,2,12192,similarity
8,5,C1350,B650,Gamma,Beta,0.0,2890,2,12192,similarity
9,5,C1350,B750,Gamma,Beta,0.0,7134,2,12192,similarity
10,5,C1350,C1250,Gamma,Gamma,6.0,8199,2,12192,similarity
11,5,C1350,A250,Gamma,Alpha,0.0,2226,2,12192,similarity
12,5,C1350,A450,Gamma,Alpha,0.0,4089,2,12192,similarity
13,5,C1350,A350,Gamma,Alpha,0.0,4588,2,12192,similarity
14,5,C1350,A50,Gamma,Alpha,0.0,810,2,12192,similarity
7,6,B550,B850,Beta,Beta,6.0,7088,2,12192,similarity
8,6,B550,B650,Beta,Beta,6.0,1412,2,12192,similarity
9,6,B550,B750,Beta,Beta,6.0,1130,2,12192,similarity
10,6,B550,C1250,Beta,Gamma,0.0,3052,2,12192,similarity
11,6,B550,A250,Beta,Alpha,0.0,5152,2,12192,similarity
12,6,B550,A450,Beta,Alpha,0.0,8127,2,12192,similarity
13,6,B550,A350,Beta,Alpha,0.0,5521,2,12192,similarity
14,6,B550,A50,Beta,Alpha,0.0,6305,2,12192,similarity
8,7,B850,B650,Beta,Beta,6.0,3129,2,12192,similarity
9,7,B850,B750,Beta,Beta,6.0,1993,2,12192,similarity
10,7,B850,C1250,Beta,Gamma,0.0,18435,2,12192,similarity
11,7,B850,A250,Beta,Alpha,0.0,2625,2,12192,similarity
12,7,B850,A450,Beta,Alpha,6.0,3216,2,12192,similarity
13,7,B850,A350,Beta,Alpha,0.0,14119,2,12192,similarity
14,7,B850,A50,Beta,Alpha,0.0,1364,2,12192,similarity
9,8,B650,B750,Beta,Beta,6.0,9437,2,12192,similarity
10,8,B650,C1250,Beta,Gamma,0.0,3945,2,12192,similarity
11,8,B650,A250,Beta,Alpha,0.0,3296,2,12192,similarity
12,8,B650,A450,Beta,Alpha,6.0,4083,2,12192,similarity
13,8,B650,A350,Beta,Alpha,0.0,2863,2,12192,similarity
14,8,B650,A50,Beta,Alpha,0.0,1778,2,12192,similarity
10,9,B750,C1250,Beta,Gamma,0.0,2882,2,12192,similarity
11,9,B750,A250,Beta,Alpha,0.0,3013,2,12192,similarity
12,9,B750,A450,Beta,Alpha,6.0,2867,2,12192,similarity
13,9,B750,A350,Beta,Alpha,0.0,2375,2,12192,similarity
14,9,B750,A50,Beta,Alpha,0.0,1555,2,12192,similarity
11,10,C1250,A250,Gamma,Alpha,0.0,1978,2,12192,similarity
12,10,C1250,A450,Gamma,Alpha,0.0,5735,2,12192,similarity
13,10,C1250,A350,Gamma,Alpha,0.0,4305,2,12192,similarity
14,10,C1250,A50,Gamma,Alpha,0.0,1499,2,12192,similarity
12,11,A250,A450,Alpha,Alpha,6.0,5529,2,12192,similarity
13,11,A250,A350,Alpha,Alpha,6.0,1298,2,12192,similarity
14,11,A250,A50,Alpha,Alpha,6.0,1097,2,12192,similarity
13,12,A450,A350,Alpha,Alpha,6.0,30325,2,12192,similarity
14,12,A450,A50,Alpha,Alpha,6.0,2383,2,12192,similarity
14,13,A350,A50,Alpha,Alpha,6.0,958,2,12192,similarity
1,0,A450,B650,Beta,Beta,0.9999999999999998,7538,2,12134,similarity
2,0,A450,B550,Alpha,Beta,0.9999999999999998,1373,2,12134,similarity
3,0,A450,A150,Alpha,Alpha,0.0,2643,2,12134,similarity
4,0,A450,A350,Alpha,Alpha,3.0,5630,2,12134,similarity
5,0,A450,C1450,Alpha,Gamma,0.0,1905,2,12134,similarity
6,0,A450,B850,Alpha,Beta,2.0,6472,2,12134,similarity
7,0,A450,B750,Alpha,Beta,2.0,852,2,12134,similarity
8,0,A450,C1350,Alpha,Gamma,0.0,1472,2,12134,similarity
9,0,A450,C1250,Alpha,Gamma,0.0,823,2,12134,similarity
10,0,A450,B950,Alpha, Beta,0.0,3187,2,12134,similarity
11,0,A450,A50,Alpha,Alpha,0.0,1243,2,12134,similarity
12,0,A450,A250,Alpha,Alpha,2.0,3667,2,12134,similarity
13,0,A450,C1050,Alpha,Gamma,2.0,1213,2,12134,similarity
14,0,A450,C1150,Alpha,Gamma,0.9999999999999998,1754,2,12134,similarity
2,1,B650,B550,Beta,Beta,5.0,6581,2,12134,similarity
3,1,B650,A150,Beta,Alpha,3.0,1634,2,12134,similarity
4,1,B650,A350,Beta,Alpha,4.0,1419,2,12134,similarity
5,1,B650,C1450,Beta,Gamma,0.9999999999999998,1708,2,12134,similarity
6,1,B650,B850,Beta,Beta,6.0,2482,2,12134,similarity
7,1,B650,B750,Beta,Beta,6.0,1284,2,12134,similarity
8,1,B650,C1350,Beta,Gamma,3.0,1746,2,12134,similarity
9,1,B650,C1250,Beta,Gamma,3.0,845,2,12134,similarity
10,1,B650,B950,Beta, Beta,2.0,1903,2,12134,similarity
11,1,B650,A50,Beta,Alpha,0.0,2024,2,12134,similarity
12,1,B650,A250,Beta,Alpha,0.0,960,2,12134,similarity
13,1,B650,C1050,Beta,Gamma,2.0,1618,2,12134,similarity
14,1,B650,C1150,Beta,Gamma,2.0,666,2,12134,similarity
3,2,B550,A150,Beta,Alpha,0.9999999999999998,3330,2,12134,similarity
4,2,B550,A350,Beta,Alpha,2.0,2577,2,12134,similarity
5,2,B550,C1450,Beta,Gamma,0.0,1925,2,12134,similarity
6,2,B550,B850,Beta,Beta,0.0,680,2,12134,similarity
7,2,B550,B750,Beta,Beta,0.0,2691,2,12134,similarity
8,2,B550,C1350,Beta,Gamma,0.0,1322,2,12134,similarity
9,2,B550,C1250,Beta,Gamma,0.0,1291,2,12134,similarity
10,2,B550,B950,Beta, Beta,0.9999999999999998,2533,2,12134,similarity
11,2,B550,A50,Beta,Alpha,0.0,1579,2,12134,similarity
12,2,B550,A250,Beta,Alpha,0.9999999999999998,2171,2,12134,similarity
13,2,B550,C1050,Beta,Gamma,0.0,1883,2,12134,similarity
14,2,B550,C1150,Beta,Gamma,0.0,619,2,12134,similarity
4,3,A150,A350,Alpha,Alpha,4.0,3009,2,12134,similarity
5,3,A150,C1450,Alpha,Gamma,0.0,1533,2,12134,similarity
6,3,A150,B850,Alpha,Beta,0.0,2635,2,12134,similarity
7,3,A150,B750,Alpha,Beta,0.0,447,2,12134,similarity
8,3,A150,C1350,Alpha,Gamma,0.0,939,2,12134,similarity
9,3,A150,C1250,Alpha,Gamma,0.0,420,2,12134,similarity
10,3,A150,B950,Alpha, Beta,0.0,635,2,12134,similarity
11,3,A150,A50,Alpha,Alpha,4.0,7888,2,12134,similarity
12,3,A150,A250,Alpha,Alpha,6.0,2507,2,12134,similarity
13,3,A150,C1050,Alpha,Gamma,0.9999999999999998,2835,2,12134,similarity
14,3,A150,C1150,Alpha,Gamma,0.9999999999999998,567,2,12134,similarity
5,4,A350,C1450,Alpha,Gamma,0.0,1585,2,12134,similarity
6,4,A350,B850,Alpha,Beta,0.9999999999999998,3209,2,12134,similarity
7,4,A350,B750,Alpha,Beta,0.9999999999999998,616,2,12134,similarity
8,4,A350,C1350,Alpha,Gamma,0.0,1675,2,12134,similarity
9,4,A350,C1250,Alpha,Gamma,0.0,3178,2,12134,similarity
10,4,A350,B950,Alpha, Beta,0.0,1120,2,12134,similarity
11,4,A350,A50,Alpha,Alpha,0.0,1347,2,12134,similarity
12,4,A350,A250,Alpha,Alpha,6.0,2198,2,12134,similarity
13,4,A350,C1050,Alpha,Gamma,0.0,3427,2,12134,similarity
14,4,A350,C1150,Alpha,Gamma,0.0,403,2,12134,similarity
6,5,C1450,B850,Gamma,Beta,0.9999999999999998,2448,2,12134,similarity
7,5,C1450,B750,Gamma,Beta,0.9999999999999998,589,2,12134,similarity
8,5,C1450,C1350,Gamma,Gamma,6.0,2261,2,12134,similarity
9,5,C1450,C1250,Gamma,Gamma,6.0,2259,2,12134,similarity
10,5,C1450,B950,Gamma, Beta,6.0,535,2,12134,similarity
11,5,C1450,A50,Gamma,Alpha,0.0,2226,2,12134,similarity
12,5,C1450,A250,Gamma,Alpha,2.0,1719,2,12134,similarity
13,5,C1450,C1050,Gamma,Gamma,6.0,1583,2,12134,similarity
14,5,C1450,C1150,Gamma,Gamma,6.0,897,2,12134,similarity
7,6,B850,B750,Beta,Beta,6.0,1539,2,12134,similarity
8,6,B850,C1350,Beta,Gamma,3.0,1930,2,12134,similarity
9,6,B850,C1250,Beta,Gamma,3.0,409,2,12134,similarity
10,6,B850,B950,Beta, Beta,5.0,1591,2,12134,similarity
11,6,B850,A50,Beta,Alpha,0.9999999999999998,1594,2,12134,similarity
12,6,B850,A250,Beta,Alpha,0.9999999999999998,2198,2,12134,similarity
13,6,B850,C1050,Beta,Gamma,4.0,1929,2,12134,similarity
14,6,B850,C1150,Beta,Gamma,4.0,1220,2,12134,similarity
8,7,B750,C1350,Beta,Gamma,3.0,3125,2,12134,similarity
9,7,B750,C1250,Beta,Gamma,4.0,1840,2,12134,similarity
10,7,B750,B950,Beta, Beta,5.0,1809,2,12134,similarity
11,7,B750,A50,Beta,Alpha,0.9999999999999998,1434,2,12134,similarity
12,7,B750,A250,Beta,Alpha,2.0,1330,2,12134,similarity
13,7,B750,C1050,Beta,Gamma,5.0,4630,2,12134,similarity
14,7,B750,C1150,Beta,Gamma,5.0,419,2,12134,similarity
9,8,C1350,C1250,Gamma,Gamma,6.0,1699,2,12134,similarity
10,8,C1350,B950,Gamma, Beta,6.0,341,2,12134,similarity
11,8,C1350,A50,Gamma,Alpha,0.0,1896,2,12134,similarity
12,8,C1350,A250,Gamma,Alpha,3.0,2851,2,12134,similarity
13,8,C1350,C1050,Gamma,Gamma,5.0,3059,2,12134,similarity
14,8,C1350,C1150,Gamma,Gamma,5.0,947,2,12134,similarity
10,9,C1250,B950,Gamma, Beta,5.0,533,2,12134,similarity
11,9,C1250,A50,Gamma,Alpha,0.0,1544,2,12134,similarity
12,9,C1250,A250,Gamma,Alpha,0.0,1175,2,12134,similarity
13,9,C1250,C1050,Gamma,Gamma,5.0,1808,2,12134,similarity
14,9,C1250,C1150,Gamma,Gamma,5.0,726,2,12134,similarity
11,10,B950,A50, Beta,Alpha,0.0,4314,2,12134,similarity
12,10,B950,A250, Beta,Alpha,2.0,2707,2,12134,similarity
13,10,B950,C1050, Beta,Gamma,6.0,2824,2,12134,similarity
14,10,B950,C1150, Beta,Gamma,6.0,596,2,12134,similarity
12,11,A50,A250,Alpha,Alpha,2.0,2601,2,12134,similarity
13,11,A50,C1050,Alpha,Gamma,0.0,1949,2,12134,similarity
14,11,A50,C1150,Alpha,Gamma,0.0,434,2,12134,similarity
13,12,A250,C1050,Alpha,Gamma,0.0,1175,2,12134,similarity
14,12,A250,C1150,Alpha,Gamma,0.0,555,2,12134,similarity
14,13,C1050,C1150,Gamma,Gamma,6.0,1675,2,12134,similarity
1,0,B750,C1250,Gamma,Gamma,3.0,11639,2,12194,similarity
2,0,B750,C1450,Beta,Gamma,3.0,1875,2,12194,similarity
3,0,B750,A150,Beta,Alpha,0.0,2438,2,12194,similarity
4,0,B750,C1350,Beta,Gamma,2.0,5243,2,12194,similarity
5,0,B750,A350,Beta,Alpha,4.0,4909,2,12194,similarity
6,0,B750,B650,Beta,Beta,5.0,2075,2,12194,similarity
7,0,B750,B950,Beta, Beta,4.0,2202,2,12194,similarity
8,0,B750,B850,Beta,Beta,4.0,1074,2,12194,similarity
9,0,B750,B550,Beta,Beta,4.0,1251,2,12194,similarity
10,0,B750,A450,Beta,Alpha,4.0,873,2,12194,similarity
11,0,B750,C1050,Beta,Gamma,5.0,2846,2,12194,similarity
12,0,B750,A250,Beta,Alpha,0.0,3786,2,12194,similarity
13,0,B750,A50,Beta,Alpha,0.0,739,2,12194,similarity
14,0,B750,C1150,Beta,Gamma,5.0,3083,2,12194,similarity
2,1,C1250,C1450,Gamma,Gamma,6.0,1989,2,12194,similarity
3,1,C1250,A150,Gamma,Alpha,0.0,2180,2,12194,similarity
4,1,C1250,C1350,Gamma,Gamma,6.0,2006,2,12194,similarity
5,1,C1250,A350,Gamma,Alpha,3.0,2699,2,12194,similarity
6,1,C1250,B650,Gamma,Beta,3.0,1113,2,12194,similarity
7,1,C1250,B950,Gamma, Beta,4.0,2674,2,12194,similarity
8,1,C1250,B850,Gamma,Beta,4.0,988,2,12194,similarity
9,1,C1250,B550,Gamma,Beta,3.0,2948,2,12194,similarity
10,1,C1250,A450,Gamma,Alpha,3.0,951,2,12194,similarity
11,1,C1250,C1050,Gamma,Gamma,5.0,1807,2,12194,similarity
12,1,C1250,A250,Gamma,Alpha,2.0,1902,2,12194,similarity
13,1,C1250,A50,Gamma,Alpha,0.0,1706,2,12194,similarity
14,1,C1250,C1150,Gamma,Gamma,6.0,1976,2,12194,similarity
3,2,C1450,A150,Gamma,Alpha,0.0,3597,2,12194,similarity
4,2,C1450,C1350,Gamma,Gamma,6.0,2619,2,12194,similarity
5,2,C1450,A350,Gamma,Alpha,0.9999999999999998,2982,2,12194,similarity
6,2,C1450,B650,Gamma,Beta,6.0,2369,2,12194,similarity
7,2,C1450,B950,Gamma, Beta,6.0,1220,2,12194,similarity
8,2,C1450,B850,Gamma,Beta,3.0,1913,2,12194,similarity
9,2,C1450,B550,Gamma,Beta,3.0,803,2,12194,similarity
10,2,C1450,A450,Gamma,Alpha,3.0,682,2,12194,similarity
11,2,C1450,C1050,Gamma,Gamma,4.0,1395,2,12194,similarity
12,2,C1450,A250,Gamma,Alpha,0.9999999999999998,2373,2,12194,similarity
13,2,C1450,A50,Gamma,Alpha,0.0,3555,2,12194,similarity
14,2,C1450,C1150,Gamma,Gamma,6.0,2203,2,12194,similarity
4,3,A150,C1350,Alpha,Gamma,0.0,3392,2,12194,similarity
5,3,A150,A350,Alpha,Alpha,4.0,8122,2,12194,similarity
6,3,A150,B650,Alpha,Beta,0.0,2561,2,12194,similarity
7,3,A150,B950,Alpha, Beta,0.0,1128,2,12194,similarity
8,3,A150,B850,Alpha,Beta,0.0,875,2,12194,similarity
9,3,A150,B550,Alpha,Beta,0.0,915,2,12194,similarity
10,3,A150,A450,Alpha,Alpha,0.0,747,2,12194,similarity
11,3,A150,C1050,Alpha,Gamma,0.0,1338,2,12194,similarity
12,3,A150,A250,Alpha,Alpha,4.0,2154,2,12194,similarity
13,3,A150,A50,Alpha,Alpha,4.0,1333,2,12194,similarity
14,3,A150,C1150,Alpha,Gamma,0.0,1995,2,12194,similarity
5,4,C1350,A350,Gamma,Alpha,0.0,980,2,12194,similarity
6,4,C1350,B650,Gamma,Beta,0.0,921,2,12194,similarity
7,4,C1350,B950,Gamma, Beta,0.0,1359,2,12194,similarity
8,4,C1350,B850,Gamma,Beta,3.0,1396,2,12194,similarity
9,4,C1350,B550,Gamma,Beta,3.0,1282,2,12194,similarity
10,4,C1350,A450,Gamma,Alpha,3.0,619,2,12194,similarity
11,4,C1350,C1050,Gamma,Gamma,3.0,583,2,12194,similarity
12,4,C1350,A250,Gamma,Alpha,0.0,5235,2,12194,similarity
13,4,C1350,A50,Gamma,Alpha,0.0,1539,2,12194,similarity
14,4,C1350,C1150,Gamma,Gamma,4.0,1987,2,12194,similarity
6,5,A350,B650,Alpha,Beta,4.0,1375,2,12194,similarity
7,5,A350,B950,Alpha, Beta,3.0,2004,2,12194,similarity
8,5,A350,B850,Alpha,Beta,3.0,594,2,12194,similarity
9,5,A350,B550,Alpha,Beta,3.0,709,2,12194,similarity
10,5,A350,A450,Alpha,Alpha,5.0,1437,2,12194,similarity
11,5,A350,C1050,Alpha,Gamma,2.0,1914,2,12194,similarity
12,5,A350,A250,Alpha,Alpha,5.0,1891,2,12194,similarity
13,5,A350,A50,Alpha,Alpha,3.0,3188,2,12194,similarity
14,5,A350,C1150,Alpha,Gamma,3.0,711,2,12194,similarity
7,6,B650,B950,Beta, Beta,3.0,667,2,12194,similarity
8,6,B650,B850,Beta,Beta,3.0,655,2,12194,similarity
9,6,B650,B550,Beta,Beta,5.0,2012,2,12194,similarity
10,6,B650,A450,Beta,Alpha,6.0,1628,2,12194,similarity
11,6,B650,C1050,Beta,Gamma,3.0,1803,2,12194,similarity
12,6,B650,A250,Beta,Alpha,3.0,690,2,12194,similarity
13,6,B650,A50,Beta,Alpha,0.0,1883,2,12194,similarity
14,6,B650,C1150,Beta,Gamma,4.0,2067,2,12194,similarity
8,7,B950,B850, Beta,Beta,6.0,2243,2,12194,similarity
9,7,B950,B550, Beta,Beta,5.0,1731,2,12194,similarity
10,7,B950,A450, Beta,Alpha,3.0,1489,2,12194,similarity
11,7,B950,C1050, Beta,Gamma,6.0,2234,2,12194,similarity
12,7,B950,A250, Beta,Alpha,2.0,2058,2,12194,similarity
13,7,B950,A50, Beta,Alpha,2.0,787,2,12194,similarity
14,7,B950,C1150, Beta,Gamma,6.0,1787,2,12194,similarity
9,8,B850,B550,Beta,Beta,3.0,2263,2,12194,similarity
10,8,B850,A450,Beta,Alpha,6.0,1923,2,12194,similarity
11,8,B850,C1050,Beta,Gamma,6.0,1379,2,12194,similarity
12,8,B850,A250,Beta,Alpha,2.0,1987,2,12194,similarity
13,8,B850,A50,Beta,Alpha,2.0,604,2,12194,similarity
14,8,B850,C1150,Beta,Gamma,5.0,4018,2,12194,similarity
10,9,B550,A450,Beta,Alpha,6.0,3210,2,12194,similarity
11,9,B550,C1050,Beta,Gamma,4.0,1987,2,12194,similarity
12,9,B550,A250,Beta,Alpha,4.0,1635,2,12194,similarity
13,9,B550,A50,Beta,Alpha,0.9999999999999998,2002,2,12194,similarity
14,9,B550,C1150,Beta,Gamma,4.0,3162,2,12194,similarity
11,10,A450,C1050,Alpha,Gamma,3.0,1953,2,12194,similarity
12,10,A450,A250,Alpha,Alpha,3.0,778,2,12194,similarity
13,10,A450,A50,Alpha,Alpha,0.0,1898,2,12194,similarity
14,10,A450,C1150,Alpha,Gamma,0.0,1500,2,12194,similarity
12,11,C1050,A250,Gamma,Alpha,0.0,554,2,12194,similarity
13,11,C1050,A50,Gamma,Alpha,0.0,563,2,12194,similarity
14,11,C1050,C1150,Gamma,Gamma,6.0,3548,2,12194,similarity
13,12,A250,A50,Alpha,Alpha,4.0,2210,2,12194,similarity
14,12,A250,C1150,Alpha,Gamma,0.9999999999999998,3067,2,12194,similarity
14,13,A50,C1150,Alpha,Gamma,0.0,2496,2,12194,similarity
1,0,B550,A350,Alpha,Alpha,3.0,3030,2,12197,similarity
2,0,B550,C1350,Beta,Gamma,3.0,583,2,12197,similarity
3,0,B550,A250,Beta,Alpha,3.0,558,2,12197,similarity
4,0,B550,A450,Beta,Alpha,3.0,825,2,12197,similarity
5,0,B550,B950,Beta, Beta,3.0,479,2,12197,similarity
6,0,B550,B750,Beta,Beta,3.0,404,2,12197,similarity
7,0,B550,C1050,Beta,Gamma,3.0,331,2,12197,similarity
8,0,B550,C1450,Beta,Gamma,3.0,389,2,12197,similarity
9,0,B550,B650,Beta,Beta,3.0,531,2,12197,similarity
10,0,B550,A150,Beta,Alpha,3.0,735,2,12197,similarity
11,0,B550,C1250,Beta,Gamma,3.0,656,2,12197,similarity
12,0,B550,C1150,Beta,Gamma,3.0,507,2,12197,similarity
13,0,B550,A50,Beta,Alpha,3.0,471,2,12197,similarity
14,0,B550,B850,Beta,Beta,3.0,244,2,12197,similarity
2,1,A350,C1350,Alpha,Gamma,3.0,139,2,12197,similarity
3,1,A350,A250,Alpha,Alpha,3.0,388,2,12197,similarity
4,1,A350,A450,Alpha,Alpha,3.0,282,2,12197,similarity
5,1,A350,B950,Alpha, Beta,3.0,353,2,12197,similarity
6,1,A350,B750,Alpha,Beta,3.0,450,2,12197,similarity
7,1,A350,C1050,Alpha,Gamma,3.0,279,2,12197,similarity
8,1,A350,C1450,Alpha,Gamma,3.0,362,2,12197,similarity
9,1,A350,B650,Alpha,Beta,3.0,394,2,12197,similarity
10,1,A350,A150,Alpha,Alpha,3.0,196,2,12197,similarity
11,1,A350,C1250,Alpha,Gamma,3.0,387,2,12197,similarity
12,1,A350,C1150,Alpha,Gamma,3.0,387,2,12197,similarity
13,1,A350,A50,Alpha,Alpha,3.0,412,2,12197,similarity
14,1,A350,B850,Alpha,Beta,3.0,467,2,12197,similarity
3,2,C1350,A250,Gamma,Alpha,3.0,192,2,12197,similarity
4,2,C1350,A450,Gamma,Alpha,3.0,278,2,12197,similarity
5,2,C1350,B950,Gamma, Beta,3.0,258,2,12197,similarity
6,2,C1350,B750,Gamma,Beta,3.0,264,2,12197,similarity
7,2,C1350,C1050,Gamma,Gamma,3.0,213,2,12197,similarity
8,2,C1350,C1450,Gamma,Gamma,3.0,1315,2,12197,similarity
9,2,C1350,B650,Gamma,Beta,3.0,684,2,12197,similarity
10,2,C1350,A150,Gamma,Alpha,3.0,562,2,12197,similarity
11,2,C1350,C1250,Gamma,Gamma,3.0,682,2,12197,similarity
12,2,C1350,C1150,Gamma,Gamma,3.0,438,2,12197,similarity
13,2,C1350,A50,Gamma,Alpha,3.0,467,2,12197,similarity
14,2,C1350,B850,Gamma,Beta,3.0,240,2,12197,similarity
4,3,A250,A450,Alpha,Alpha,3.0,200,2,12197,similarity
5,3,A250,B950,Alpha, Beta,3.0,502,2,12197,similarity
6,3,A250,B750,Alpha,Beta,3.0,508,2,12197,similarity
7,3,A250,C1050,Alpha,Gamma,3.0,356,2,12197,similarity
8,3,A250,C1450,Alpha,Gamma,3.0,277,2,12197,similarity
9,3,A250,B650,Alpha,Beta,3.0,209,2,12197,similarity
10,3,A250,A150,Alpha,Alpha,3.0,215,2,12197,similarity
11,3,A250,C1250,Alpha,Gamma,3.0,182,2,12197,similarity
12,3,A250,C1150,Alpha,Gamma,3.0,199,2,12197,similarity
13,3,A250,A50,Alpha,Alpha,3.0,175,2,12197,similarity
14,3,A250,B850,Alpha,Beta,3.0,239,2,12197,similarity
5,4,A450,B950,Alpha, Beta,3.0,205,2,12197,similarity
6,4,A450,B750,Alpha,Beta,3.0,244,2,12197,similarity
7,4,A450,C1050,Alpha,Gamma,3.0,234,2,12197,similarity
8,4,A450,C1450,Alpha,Gamma,3.0,224,2,12197,similarity
9,4,A450,B650,Alpha,Beta,3.0,237,2,12197,similarity
10,4,A450,A150,Alpha,Alpha,3.0,268,2,12197,similarity
11,4,A450,C1250,Alpha,Gamma,3.0,225,2,12197,similarity
12,4,A450,C1150,Alpha,Gamma,3.0,271,2,12197,similarity
13,4,A450,A50,Alpha,Alpha,3.0,188,2,12197,similarity
14,4,A450,B850,Alpha,Beta,3.0,348,2,12197,similarity
6,5,B950,B750, Beta,Beta,3.0,253,2,12197,similarity
7,5,B950,C1050, Beta,Gamma,3.0,272,2,12197,similarity
8,5,B950,C1450, Beta,Gamma,3.0,244,2,12197,similarity
9,5,B950,B650, Beta,Beta,3.0,269,2,12197,similarity
10,5,B950,A150, Beta,Alpha,3.0,231,2,12197,similarity
11,5,B950,C1250, Beta,Gamma,3.0,262,2,12197,similarity
12,5,B950,C1150, Beta,Gamma,3.0,259,2,12197,similarity
13,5,B950,A50, Beta,Alpha,3.0,296,2,12197,similarity
14,5,B950,B850, Beta,Beta,3.0,252,2,12197,similarity
7,6,B750,C1050,Beta,Gamma,3.0,279,2,12197,similarity
8,6,B750,C1450,Beta,Gamma,3.0,252,2,12197,similarity
9,6,B750,B650,Beta,Beta,3.0,265,2,12197,similarity
10,6,B750,A150,Beta,Alpha,3.0,246,2,12197,similarity
11,6,B750,C1250,Beta,Gamma,3.0,260,2,12197,similarity
12,6,B750,C1150,Beta,Gamma,3.0,270,2,12197,similarity
13,6,B750,A50,Beta,Alpha,3.0,292,2,12197,similarity
14,6,B750,B850,Beta,Beta,3.0,296,2,12197,similarity
8,7,C1050,C1450,Gamma,Gamma,3.0,264,2,12197,similarity
9,7,C1050,B650,Gamma,Beta,3.0,234,2,12197,similarity
10,7,C1050,A150,Gamma,Alpha,3.0,311,2,12197,similarity
11,7,C1050,C1250,Gamma,Gamma,3.0,266,2,12197,similarity
12,7,C1050,C1150,Gamma,Gamma,3.0,294,2,12197,similarity
13,7,C1050,A50,Gamma,Alpha,3.0,314,2,12197,similarity
14,7,C1050,B850,Gamma,Beta,3.0,309,2,12197,similarity
9,8,C1450,B650,Gamma,Beta,3.0,286,2,12197,similarity
10,8,C1450,A150,Gamma,Alpha,3.0,292,2,12197,similarity
11,8,C1450,C1250,Gamma,Gamma,3.0,287,2,12197,similarity
12,8,C1450,C1150,Gamma,Gamma,3.0,259,2,12197,similarity
13,8,C1450,A50,Gamma,Alpha,3.0,256,2,12197,similarity
14,8,C1450,B850,Gamma,Beta,3.0,269,2,12197,similarity
10,9,B650,A150,Beta,Alpha,3.0,264,2,12197,similarity
11,9,B650,C1250,Beta,Gamma,3.0,255,2,12197,similarity
12,9,B650,C1150,Beta,Gamma,3.0,258,2,12197,similarity
13,9,B650,A50,Beta,Alpha,3.0,296,2,12197,similarity
14,9,B650,B850,Beta,Beta,3.0,274,2,12197,similarity
11,10,A150,C1250,Alpha,Gamma,3.0,290,2,12197,similarity
12,10,A150,C1150,Alpha,Gamma,3.0,269,2,12197,similarity
13,10,A150,A50,Alpha,Alpha,3.0,257,2,12197,similarity
14,10,A150,B850,Alpha,Beta,3.0,287,2,12197,similarity
12,11,C1250,C1150,Gamma,Gamma,3.0,267,2,12197,similarity
13,11,C1250,A50,Gamma,Alpha,3.0,270,2,12197,similarity
14,11,C1250,B850,Gamma,Beta,3.0,292,2,12197,similarity
13,12,C1150,A50,Gamma,Alpha,3.0,261,2,12197,similarity
14,12,C1150,B850,Gamma,Beta,3.0,332,2,12197,similarity
14,13,A50,B850,Alpha,Beta,3.0,279,2,12197,similarity
1,0,C1350,C1250,Gamma,Gamma,5.0,12246,2,12200,similarity
2,0,C1350,C1050,Gamma,Gamma,4.0,5535,2,12200,similarity
3,0,C1350,A150,Gamma,Alpha,0.0,4650,2,12200,similarity
4,0,C1350,A450,Gamma,Alpha,2.0,3581,2,12200,similarity
5,0,C1350,C1150,Gamma,Gamma,5.0,4419,2,12200,similarity
6,0,C1350,C1450,Gamma,Gamma,6.0,3266,2,12200,similarity
7,0,C1350,B850,Gamma,Beta,3.0,4410,2,12200,similarity
8,0,C1350,A350,Gamma,Alpha,0.9999999999999998,4165,2,12200,similarity
9,0,C1350,A250,Gamma,Alpha,0.9999999999999998,1921,2,12200,similarity
10,0,C1350,B650,Gamma,Beta,2.0,4506,2,12200,similarity
11,0,C1350,B550,Gamma,Beta,2.0,1837,2,12200,similarity
12,0,C1350,B750,Gamma,Beta,3.0,2287,2,12200,similarity
13,0,C1350,A50,Gamma,Alpha,0.0,2884,2,12200,similarity
14,0,C1350,B950,Gamma, Beta,4.0,5863,2,12200,similarity
2,1,C1250,C1050,Gamma,Gamma,5.0,2776,2,12200,similarity
3,1,C1250,A150,Gamma,Alpha,0.0,3036,2,12200,similarity
4,1,C1250,A450,Gamma,Alpha,0.9999999999999998,3208,2,12200,similarity
5,1,C1250,C1150,Gamma,Gamma,6.0,2912,2,12200,similarity
6,1,C1250,C1450,Gamma,Gamma,6.0,2179,2,12200,similarity
7,1,C1250,B850,Gamma,Beta,4.0,4015,2,12200,similarity
8,1,C1250,A350,Gamma,Alpha,2.0,2443,2,12200,similarity
9,1,C1250,A250,Gamma,Alpha,2.0,2001,2,12200,similarity
10,1,C1250,B650,Gamma,Beta,3.0,2482,2,12200,similarity
11,1,C1250,B550,Gamma,Beta,3.0,2659,2,12200,similarity
12,1,C1250,B750,Gamma,Beta,3.0,1823,2,12200,similarity
13,1,C1250,A50,Gamma,Alpha,0.0,2866,2,12200,similarity
14,1,C1250,B950,Gamma, Beta,5.0,3153,2,12200,similarity
3,2,C1050,A150,Gamma,Alpha,0.9999999999999998,2378,2,12200,similarity
4,2,C1050,A450,Gamma,Alpha,3.0,2876,2,12200,similarity
5,2,C1050,C1150,Gamma,Gamma,6.0,2531,2,12200,similarity
6,2,C1050,C1450,Gamma,Gamma,5.0,3786,2,12200,similarity
7,2,C1050,B850,Gamma,Beta,6.0,3907,2,12200,similarity
8,2,C1050,A350,Gamma,Alpha,2.0,5066,2,12200,similarity
9,2,C1050,A250,Gamma,Alpha,2.0,1147,2,12200,similarity
10,2,C1050,B650,Gamma,Beta,3.0,2220,2,12200,similarity
11,2,C1050,B550,Gamma,Beta,3.0,1275,2,12200,similarity
12,2,C1050,B750,Gamma,Beta,4.0,2571,2,12200,similarity
13,2,C1050,A50,Gamma,Alpha,0.0,2506,2,12200,similarity
14,2,C1050,B950,Gamma, Beta,6.0,3115,2,12200,similarity
4,3,A150,A450,Alpha,Alpha,3.0,6419,2,12200,similarity
5,3,A150,C1150,Alpha,Gamma,0.9999999999999998,11323,2,12200,similarity
6,3,A150,C1450,Alpha,Gamma,0.0,4018,2,12200,similarity
7,3,A150,B850,Alpha,Beta,2.0,2490,2,12200,similarity
8,3,A150,A350,Alpha,Alpha,5.0,3875,2,12200,similarity
9,3,A150,A250,Alpha,Alpha,6.0,2643,2,12200,similarity
10,3,A150,B650,Alpha,Beta,3.0,2378,2,12200,similarity
11,3,A150,B550,Alpha,Beta,2.0,4994,2,12200,similarity
12,3,A150,B750,Alpha,Beta,0.9999999999999998,3034,2,12200,similarity
13,3,A150,A50,Alpha,Alpha,5.0,3531,2,12200,similarity
14,3,A150,B950,Alpha, Beta,0.9999999999999998,5975,2,12200,similarity
5,4,A450,C1150,Alpha,Gamma,3.0,2370,2,12200,similarity
6,4,A450,C1450,Alpha,Gamma,2.0,6844,2,12200,similarity
7,4,A450,B850,Alpha,Beta,3.0,5138,2,12200,similarity
8,4,A450,A350,Alpha,Alpha,6.0,6531,2,12200,similarity
9,4,A450,A250,Alpha,Alpha,5.0,2299,2,12200,similarity
10,4,A450,B650,Alpha,Beta,5.0,4172,2,12200,similarity
11,4,A450,B550,Alpha,Beta,6.0,2047,2,12200,similarity
12,4,A450,B750,Alpha,Beta,5.0,2723,2,12200,similarity
13,4,A450,A50,Alpha,Alpha,0.0,3090,2,12200,similarity
14,4,A450,B950,Alpha, Beta,3.0,7101,2,12200,similarity
6,5,C1150,C1450,Gamma,Gamma,5.0,3305,2,12200,similarity
7,5,C1150,B850,Gamma,Beta,5.0,1540,2,12200,similarity
8,5,C1150,A350,Gamma,Alpha,2.0,3203,2,12200,similarity
9,5,C1150,A250,Gamma,Alpha,2.0,1178,2,12200,similarity
10,5,C1150,B650,Gamma,Beta,3.0,2873,2,12200,similarity
11,5,C1150,B550,Gamma,Beta,3.0,1274,2,12200,similarity
12,5,C1150,B750,Gamma,Beta,4.0,2146,2,12200,similarity
13,5,C1150,A50,Gamma,Alpha,0.0,4515,2,12200,similarity
14,5,C1150,B950,Gamma, Beta,4.0,7843,2,12200,similarity
7,6,C1450,B850,Gamma,Beta,4.0,2681,2,12200,similarity
8,6,C1450,A350,Gamma,Alpha,0.9999999999999998,4617,2,12200,similarity
9,6,C1450,A250,Gamma,Alpha,0.9999999999999998,1682,2,12200,similarity
10,6,C1450,B650,Gamma,Beta,3.0,3063,2,12200,similarity
11,6,C1450,B550,Gamma,Beta,3.0,1114,2,12200,similarity
12,6,C1450,B750,Gamma,Beta,4.0,2824,2,12200,similarity
13,6,C1450,A50,Gamma,Alpha,0.0,3472,2,12200,similarity
14,6,C1450,B950,Gamma, Beta,3.0,4741,2,12200,similarity
8,7,B850,A350,Beta,Alpha,3.0,2430,2,12200,similarity
9,7,B850,A250,Beta,Alpha,3.0,1099,2,12200,similarity
10,7,B850,B650,Beta,Beta,5.0,2819,2,12200,similarity
11,7,B850,B550,Beta,Beta,5.0,1587,2,12200,similarity
12,7,B850,B750,Beta,Beta,6.0,2603,2,12200,similarity
13,7,B850,A50,Beta,Alpha,0.0,3643,2,12200,similarity
14,7,B850,B950,Beta, Beta,6.0,3855,2,12200,similarity
9,8,A350,A250,Alpha,Alpha,6.0,2228,2,12200,similarity
10,8,A350,B650,Alpha,Beta,4.0,3344,2,12200,similarity
11,8,A350,B550,Alpha,Beta,5.0,3347,2,12200,similarity
12,8,A350,B750,Alpha,Beta,3.0,3746,2,12200,similarity
13,8,A350,A50,Alpha,Alpha,0.9999999999999998,3538,2,12200,similarity
14,8,A350,B950,Alpha, Beta,3.0,4673,2,12200,similarity
10,9,A250,B650,Alpha,Beta,4.0,2749,2,12200,similarity
11,9,A250,B550,Alpha,Beta,4.0,1363,2,12200,similarity
12,9,A250,B750,Alpha,Beta,4.0,659,2,12200,similarity
13,9,A250,A50,Alpha,Alpha,3.0,2673,2,12200,similarity
14,9,A250,B950,Alpha, Beta,0.9999999999999998,4315,2,12200,similarity
11,10,B650,B550,Beta,Beta,6.0,3393,2,12200,similarity
12,10,B650,B750,Beta,Beta,6.0,1576,2,12200,similarity
13,10,B650,A50,Beta,Alpha,0.0,2808,2,12200,similarity
14,10,B650,B950,Beta, Beta,4.0,4048,2,12200,similarity
12,11,B550,B750,Beta,Beta,5.0,2116,2,12200,similarity
13,11,B550,A50,Beta,Alpha,0.9999999999999998,2851,2,12200,similarity
14,11,B550,B950,Beta, Beta,3.0,2619,2,12200,similarity
13,12,B750,A50,Beta,Alpha,0.0,2347,2,12200,similarity
14,12,B750,B950,Beta, Beta,5.0,6448,2,12200,similarity
14,13,A50,B950,Alpha, Beta,0.0,3118,2,12200,similarity
1,0,B750,A250,Alpha,Alpha,2.0,9945,2,12203,similarity
2,0,B750,A50,Beta,Alpha,0.9999999999999998,2491,2,12203,similarity
3,0,B750,B550,Beta,Beta,4.0,5305,2,12203,similarity
4,0,B750,C1250,Beta,Gamma,4.0,3273,2,12203,similarity
5,0,B750,B850,Beta,Beta,5.0,3131,2,12203,similarity
6,0,B750,A150,Beta,Alpha,0.9999999999999998,4652,2,12203,similarity
7,0,B750,B650,Beta,Beta,5.0,4099,2,12203,similarity
8,0,B750,A350,Beta,Alpha,3.0,4065,2,12203,similarity
9,0,B750,C1150,Beta,Gamma,4.0,2254,2,12203,similarity
10,0,B750,A450,Beta,Alpha,4.0,4959,2,12203,similarity
11,0,B750,C1350,Beta,Gamma,4.0,1826,2,12203,similarity
12,0,B750,B950,Beta, Beta,5.0,2407,2,12203,similarity
13,0,B750,C1450,Beta,Gamma,3.0,3692,2,12203,similarity
14,0,B750,C1050,Beta,Gamma,4.0,1792,2,12203,similarity
2,1,A250,A50,Alpha,Alpha,2.0,2591,2,12203,similarity
3,1,A250,B550,Alpha,Beta,3.0,3771,2,12203,similarity
4,1,A250,C1250,Alpha,Gamma,0.9999999999999998,2787,2,12203,similarity
5,1,A250,B850,Alpha,Beta,2.0,2382,2,12203,similarity
6,1,A250,A150,Alpha,Alpha,5.0,2362,2,12203,similarity
7,1,A250,B650,Alpha,Beta,2.0,2864,2,12203,similarity
8,1,A250,A350,Alpha,Alpha,5.0,4646,2,12203,similarity
9,1,A250,C1150,Alpha,Gamma,0.9999999999999998,3301,2,12203,similarity
10,1,A250,A450,Alpha,Alpha,4.0,4600,2,12203,similarity
11,1,A250,C1350,Alpha,Gamma,0.9999999999999998,1901,2,12203,similarity
12,1,A250,B950,Alpha, Beta,2.0,1819,2,12203,similarity
13,1,A250,C1450,Alpha,Gamma,0.0,3864,2,12203,similarity
14,1,A250,C1050,Alpha,Gamma,0.9999999999999998,5500,2,12203,similarity
3,2,A50,B550,Alpha,Beta,0.9999999999999998,1973,2,12203,similarity
4,2,A50,C1250,Alpha,Gamma,0.0,2221,2,12203,similarity
5,2,A50,B850,Alpha,Beta,0.0,4771,2,12203,similarity
6,2,A50,A150,Alpha,Alpha,3.0,3658,2,12203,similarity
7,2,A50,B650,Alpha,Beta,0.9999999999999998,2683,2,12203,similarity
8,2,A50,A350,Alpha,Alpha,0.9999999999999998,1279,2,12203,similarity
9,2,A50,C1150,Alpha,Gamma,0.0,2035,2,12203,similarity
10,2,A50,A450,Alpha,Alpha,0.9999999999999998,2186,2,12203,similarity
11,2,A50,C1350,Alpha,Gamma,0.0,2147,2,12203,similarity
12,2,A50,B950,Alpha, Beta,0.0,1067,2,12203,similarity
13,2,A50,C1450,Alpha,Gamma,0.0,1180,2,12203,similarity
14,2,A50,C1050,Alpha,Gamma,0.0,819,2,12203,similarity
4,3,B550,C1250,Beta,Gamma,3.0,2476,2,12203,similarity
5,3,B550,B850,Beta,Beta,4.0,2539,2,12203,similarity
6,3,B550,A150,Beta,Alpha,2.0,5315,2,12203,similarity
7,3,B550,B650,Beta,Beta,5.0,3497,2,12203,similarity
8,3,B550,A350,Beta,Alpha,4.0,2335,2,12203,similarity
9,3,B550,C1150,Beta,Gamma,3.0,1786,2,12203,similarity
10,3,B550,A450,Beta,Alpha,5.0,1770,2,12203,similarity
11,3,B550,C1350,Beta,Gamma,3.0,2691,2,12203,similarity
12,3,B550,B950,Beta, Beta,4.0,6386,2,12203,similarity
13,3,B550,C1450,Beta,Gamma,2.0,4715,2,12203,similarity
14,3,B550,C1050,Beta,Gamma,3.0,2086,2,12203,similarity
5,4,C1250,B850,Gamma,Beta,4.0,3430,2,12203,similarity
6,4,C1250,A150,Gamma,Alpha,0.9999999999999998,2958,2,12203,similarity
7,4,C1250,B650,Gamma,Beta,3.0,2326,2,12203,similarity
8,4,C1250,A350,Gamma,Alpha,2.0,1864,2,12203,similarity
9,4,C1250,C1150,Gamma,Gamma,5.0,2356,2,12203,similarity
10,4,C1250,A450,Gamma,Alpha,2.0,3595,2,12203,similarity
11,4,C1250,C1350,Gamma,Gamma,5.0,2923,2,12203,similarity
12,4,C1250,B950,Gamma, Beta,4.0,1947,2,12203,similarity
13,4,C1250,C1450,Gamma,Gamma,5.0,2204,2,12203,similarity
14,4,C1250,C1050,Gamma,Gamma,4.0,2350,2,12203,similarity
6,5,B850,A150,Beta,Alpha,2.0,3037,2,12203,similarity
7,5,B850,B650,Beta,Beta,4.0,2329,2,12203,similarity
8,5,B850,A350,Beta,Alpha,3.0,1539,2,12203,similarity
9,5,B850,C1150,Beta,Gamma,4.0,2364,2,12203,similarity
10,5,B850,A450,Beta,Alpha,3.0,1869,2,12203,similarity
11,5,B850,C1350,Beta,Gamma,4.0,3433,2,12203,similarity
12,5,B850,B950,Beta, Beta,5.0,2325,2,12203,similarity
13,5,B850,C1450,Beta,Gamma,3.0,4752,2,12203,similarity
14,5,B850,C1050,Beta,Gamma,5.0,2859,2,12203,similarity
7,6,A150,B650,Alpha,Beta,2.0,3308,2,12203,similarity
8,6,A150,A350,Alpha,Alpha,3.0,1926,2,12203,similarity
9,6,A150,C1150,Alpha,Gamma,0.9999999999999998,3914,2,12203,similarity
10,6,A150,A450,Alpha,Alpha,2.0,5476,2,12203,similarity
11,6,A150,C1350,Alpha,Gamma,0.9999999999999998,2170,2,12203,similarity
12,6,A150,B950,Alpha, Beta,0.9999999999999998,1320,2,12203,similarity
13,6,A150,C1450,Alpha,Gamma,0.0,3531,2,12203,similarity
14,6,A150,C1050,Alpha,Gamma,0.9999999999999998,2190,2,12203,similarity
8,7,B650,A350,Beta,Alpha,4.0,4178,2,12203,similarity
9,7,B650,C1150,Beta,Gamma,3.0,3432,2,12203,similarity
10,7,B650,A450,Beta,Alpha,4.0,1964,2,12203,similarity
11,7,B650,C1350,Beta,Gamma,2.0,1716,2,12203,similarity
12,7,B650,B950,Beta, Beta,4.0,2530,2,12203,similarity
13,7,B650,C1450,Beta,Gamma,3.0,1688,2,12203,similarity
14,7,B650,C1050,Beta,Gamma,4.0,1650,2,12203,similarity
9,8,A350,C1150,Alpha,Gamma,3.0,1591,2,12203,similarity
10,8,A350,A450,Alpha,Alpha,5.0,2154,2,12203,similarity
11,8,A350,C1350,Alpha,Gamma,2.0,3899,2,12203,similarity
12,8,A350,B950,Alpha, Beta,3.0,3138,2,12203,similarity
13,8,A350,C1450,Alpha,Gamma,0.9999999999999998,2292,2,12203,similarity
14,8,A350,C1050,Alpha,Gamma,2.0,2357,2,12203,similarity
10,9,C1150,A450,Gamma,Alpha,2.0,1991,2,12203,similarity
11,9,C1150,C1350,Gamma,Gamma,5.0,1902,2,12203,similarity
12,9,C1150,B950,Gamma, Beta,5.0,4072,2,12203,similarity
13,9,C1150,C1450,Gamma,Gamma,5.0,1177,2,12203,similarity
14,9,C1150,C1050,Gamma,Gamma,5.0,724,2,12203,similarity
11,10,A450,C1350,Alpha,Gamma,3.0,2158,2,12203,similarity
12,10,A450,B950,Alpha, Beta,3.0,4396,2,12203,similarity
13,10,A450,C1450,Alpha,Gamma,2.0,1956,2,12203,similarity
14,10,A450,C1050,Alpha,Gamma,2.0,1044,2,12203,similarity
12,11,C1350,B950,Gamma, Beta,4.0,2813,2,12203,similarity
13,11,C1350,C1450,Gamma,Gamma,6.0,3611,2,12203,similarity
14,11,C1350,C1050,Gamma,Gamma,4.0,2294,2,12203,similarity
13,12,B950,C1450, Beta,Gamma,4.0,3920,2,12203,similarity
14,12,B950,C1050, Beta,Gamma,5.0,5475,2,12203,similarity
14,13,C1450,C1050,Gamma,Gamma,3.0,2309,2,12203,similarity
1,0,A450,C1250,Gamma,Gamma,0.9999999999999998,23468,2,12219,similarity
2,0,A450,C1050,Alpha,Gamma,0.9999999999999998,5612,2,12219,similarity
3,0,A450,A350,Alpha,Alpha,5.0,9785,2,12219,similarity
4,0,A450,A250,Alpha,Alpha,5.0,19342,2,12219,similarity
5,0,A450,C1350,Alpha,Gamma,0.9999999999999998,5418,2,12219,similarity
6,0,A450,C1450,Alpha,Gamma,0.9999999999999998,3352,2,12219,similarity
7,0,A450,B950,Alpha, Beta,5.0,10528,2,12219,similarity
8,0,A450,B650,Alpha,Beta,5.0,3711,2,12219,similarity
9,0,A450,A150,Alpha,Alpha,4.0,24032,2,12219,similarity
10,0,A450,B750,Alpha,Beta,4.0,6958,2,12219,similarity
11,0,A450,C1150,Alpha,Gamma,0.9999999999999998,4530,2,12219,similarity
12,0,A450,A50,Alpha,Alpha,4.0,18357,2,12219,similarity
13,0,A450,B550,Alpha,Beta,5.0,4755,2,12219,similarity
14,0,A450,B850,Alpha,Beta,5.0,3131,2,12219,similarity
2,1,C1250,C1050,Gamma,Gamma,5.0,2348,2,12219,similarity
3,1,C1250,A350,Gamma,Alpha,0.9999999999999998,24357,2,12219,similarity
4,1,C1250,A250,Gamma,Alpha,0.9999999999999998,2043,2,12219,similarity
5,1,C1250,C1350,Gamma,Gamma,5.0,3005,2,12219,similarity
6,1,C1250,C1450,Gamma,Gamma,5.0,1114,2,12219,similarity
7,1,C1250,B950,Gamma, Beta,5.0,5011,2,12219,similarity
8,1,C1250,B650,Gamma,Beta,4.0,2714,2,12219,similarity
9,1,C1250,A150,Gamma,Alpha,0.9999999999999998,3092,2,12219,similarity
10,1,C1250,B750,Gamma,Beta,2.0,6018,2,12219,similarity
11,1,C1250,C1150,Gamma,Gamma,5.0,2868,2,12219,similarity
12,1,C1250,A50,Gamma,Alpha,0.0,6882,2,12219,similarity
13,1,C1250,B550,Gamma,Beta,2.0,8498,2,12219,similarity
14,1,C1250,B850,Gamma,Beta,4.0,3692,2,12219,similarity
3,2,C1050,A350,Gamma,Alpha,2.0,6910,2,12219,similarity
4,2,C1050,A250,Gamma,Alpha,2.0,10207,2,12219,similarity
5,2,C1050,C1350,Gamma,Gamma,5.0,5812,2,12219,similarity
6,2,C1050,C1450,Gamma,Gamma,5.0,1241,2,12219,similarity
7,2,C1050,B950,Gamma, Beta,6.0,3963,2,12219,similarity
8,2,C1050,B650,Gamma,Beta,5.0,5901,2,12219,similarity
9,2,C1050,A150,Gamma,Alpha,2.0,11843,2,12219,similarity
10,2,C1050,B750,Gamma,Beta,5.0,11365,2,12219,similarity
11,2,C1050,C1150,Gamma,Gamma,6.0,3562,2,12219,similarity
12,2,C1050,A50,Gamma,Alpha,0.9999999999999998,6043,2,12219,similarity
13,2,C1050,B550,Gamma,Beta,2.0,3892,2,12219,similarity
14,2,C1050,B850,Gamma,Beta,5.0,2902,2,12219,similarity
4,3,A350,A250,Alpha,Alpha,5.0,2539,2,12219,similarity
5,3,A350,C1350,Alpha,Gamma,0.9999999999999998,6387,2,12219,similarity
6,3,A350,C1450,Alpha,Gamma,0.9999999999999998,3387,2,12219,similarity
7,3,A350,B950,Alpha, Beta,2.0,13823,2,12219,similarity
8,3,A350,B650,Alpha,Beta,4.0,5122,2,12219,similarity
9,3,A350,A150,Alpha,Alpha,4.0,2211,2,12219,similarity
10,3,A350,B750,Alpha,Beta,2.0,8378,2,12219,similarity
11,3,A350,C1150,Alpha,Gamma,0.9999999999999998,5970,2,12219,similarity
12,3,A350,A50,Alpha,Alpha,4.0,5169,2,12219,similarity
13,3,A350,B550,Alpha,Beta,5.0,3638,2,12219,similarity
14,3,A350,B850,Alpha,Beta,4.0,6378,2,12219,similarity
5,4,A250,C1350,Alpha,Gamma,0.9999999999999998,4266,2,12219,similarity
6,4,A250,C1450,Alpha,Gamma,0.9999999999999998,3860,2,12219,similarity
7,4,A250,B950,Alpha, Beta,2.0,4545,2,12219,similarity
8,4,A250,B650,Alpha,Beta,3.0,5856,2,12219,similarity
9,4,A250,A150,Alpha,Alpha,5.0,3196,2,12219,similarity
10,4,A250,B750,Alpha,Beta,4.0,4419,2,12219,similarity
11,4,A250,C1150,Alpha,Gamma,0.9999999999999998,4891,2,12219,similarity
12,4,A250,A50,Alpha,Alpha,4.0,2731,2,12219,similarity
13,4,A250,B550,Alpha,Beta,2.0,10933,2,12219,similarity
14,4,A250,B850,Alpha,Beta,2.0,14058,2,12219,similarity
6,5,C1350,C1450,Gamma,Gamma,6.0,2579,2,12219,similarity
7,5,C1350,B950,Gamma, Beta,5.0,8443,2,12219,similarity
8,5,C1350,B650,Gamma,Beta,2.0,6778,2,12219,similarity
9,5,C1350,A150,Gamma,Alpha,0.9999999999999998,2310,2,12219,similarity
10,5,C1350,B750,Gamma,Beta,2.0,3782,2,12219,similarity
11,5,C1350,C1150,Gamma,Gamma,4.0,6176,2,12219,similarity
12,5,C1350,A50,Gamma,Alpha,0.0,3433,2,12219,similarity
13,5,C1350,B550,Gamma,Beta,0.9999999999999998,6538,2,12219,similarity
14,5,C1350,B850,Gamma,Beta,3.0,11530,2,12219,similarity
7,6,C1450,B950,Gamma, Beta,3.0,3003,2,12219,similarity
8,6,C1450,B650,Gamma,Beta,2.0,4353,2,12219,similarity
9,6,C1450,A150,Gamma,Alpha,0.0,5602,2,12219,similarity
10,6,C1450,B750,Gamma,Beta,2.0,4607,2,12219,similarity
11,6,C1450,C1150,Gamma,Gamma,5.0,4733,2,12219,similarity
12,6,C1450,A50,Gamma,Alpha,0.0,2778,2,12219,similarity
13,6,C1450,B550,Gamma,Beta,0.9999999999999998,8771,2,12219,similarity
14,6,C1450,B850,Gamma,Beta,2.0,3193,2,12219,similarity
8,7,B950,B650, Beta,Beta,5.0,7069,2,12219,similarity
9,7,B950,A150, Beta,Alpha,2.0,5451,2,12219,similarity
10,7,B950,B750, Beta,Beta,5.0,3698,2,12219,similarity
11,7,B950,C1150, Beta,Gamma,5.0,1395,2,12219,similarity
12,7,B950,A50, Beta,Alpha,0.9999999999999998,2713,2,12219,similarity
13,7,B950,B550, Beta,Beta,2.0,4044,2,12219,similarity
14,7,B950,B850, Beta,Beta,6.0,3168,2,12219,similarity
9,8,B650,A150,Beta,Alpha,3.0,8147,2,12219,similarity
10,8,B650,B750,Beta,Beta,6.0,2307,2,12219,similarity
11,8,B650,C1150,Beta,Gamma,5.0,2755,2,12219,similarity
12,8,B650,A50,Beta,Alpha,3.0,6985,2,12219,similarity
13,8,B650,B550,Beta,Beta,6.0,6019,2,12219,similarity
14,8,B650,B850,Beta,Beta,5.0,4112,2,12219,similarity
10,9,A150,B750,Alpha,Beta,2.0,7051,2,12219,similarity
11,9,A150,C1150,Alpha,Gamma,0.9999999999999998,2770,2,12219,similarity
12,9,A150,A50,Alpha,Alpha,5.0,4763,2,12219,similarity
13,9,A150,B550,Alpha,Beta,3.0,7373,2,12219,similarity
14,9,A150,B850,Alpha,Beta,3.0,3409,2,12219,similarity
11,10,B750,C1150,Beta,Gamma,4.0,2337,2,12219,similarity
12,10,B750,A50,Beta,Alpha,0.9999999999999998,3539,2,12219,similarity
13,10,B750,B550,Beta,Beta,4.0,3892,2,12219,similarity
14,10,B750,B850,Beta,Beta,6.0,2310,2,12219,similarity
12,11,C1150,A50,Gamma,Alpha,0.0,4411,2,12219,similarity
13,11,C1150,B550,Gamma,Beta,4.0,4868,2,12219,similarity
14,11,C1150,B850,Gamma,Beta,4.0,1515,2,12219,similarity
13,12,A50,B550,Alpha,Beta,3.0,6603,2,12219,similarity
14,12,A50,B850,Alpha,Beta,0.9999999999999998,6051,2,12219,similarity
14,13,B550,B850,Beta,Beta,4.0,2588,2,12219,similarity
1,0,C1450,C1250,Gamma,Gamma,6.0,9745,2,12222,similarity
2,0,C1450,C1050,Gamma,Gamma,6.0,3255,2,12222,similarity
3,0,C1450,B650,Gamma,Beta,3.0,5650,2,12222,similarity
4,0,C1450,A350,Gamma,Alpha,0.9999999999999998,2872,2,12222,similarity
5,0,C1450,A150,Gamma,Alpha,0.0,3466,2,12222,similarity
6,0,C1450,B850,Gamma,Beta,3.0,3670,2,12222,similarity
7,0,C1450,C1150,Gamma,Gamma,5.0,3437,2,12222,similarity
8,0,C1450,C1350,Gamma,Gamma,6.0,2147,2,12222,similarity
9,0,C1450,A450,Gamma,Alpha,3.0,2393,2,12222,similarity
10,0,C1450,B750,Gamma,Beta,4.0,3092,2,12222,similarity
11,0,C1450,A50,Gamma,Alpha,0.0,1682,2,12222,similarity
12,0,C1450,B550,Gamma,Beta,3.0,2511,2,12222,similarity
13,0,C1450,B950,Gamma, Beta,4.0,3017,2,12222,similarity
14,0,C1450,A250,Gamma,Alpha,2.0,1875,2,12222,similarity
2,1,C1250,C1050,Gamma,Gamma,5.0,2275,2,12222,similarity
3,1,C1250,B650,Gamma,Beta,4.0,2452,2,12222,similarity
4,1,C1250,A350,Gamma,Alpha,2.0,2178,2,12222,similarity
5,1,C1250,A150,Gamma,Alpha,0.0,1675,2,12222,similarity
6,1,C1250,B850,Gamma,Beta,4.0,2707,2,12222,similarity
7,1,C1250,C1150,Gamma,Gamma,6.0,2953,2,12222,similarity
8,1,C1250,C1350,Gamma,Gamma,6.0,1553,2,12222,similarity
9,1,C1250,A450,Gamma,Alpha,4.0,4008,2,12222,similarity
10,1,C1250,B750,Gamma,Beta,4.0,5090,2,12222,similarity
11,1,C1250,A50,Gamma,Alpha,0.0,2307,2,12222,similarity
12,1,C1250,B550,Gamma,Beta,2.0,2638,2,12222,similarity
13,1,C1250,B950,Gamma, Beta,5.0,2675,2,12222,similarity
14,1,C1250,A250,Gamma,Alpha,2.0,2104,2,12222,similarity
3,2,C1050,B650,Gamma,Beta,4.0,3249,2,12222,similarity
4,2,C1050,A350,Gamma,Alpha,0.9999999999999998,2850,2,12222,similarity
5,2,C1050,A150,Gamma,Alpha,0.9999999999999998,794,2,12222,similarity
6,2,C1050,B850,Gamma,Beta,5.0,3469,2,12222,similarity
7,2,C1050,C1150,Gamma,Gamma,6.0,2090,2,12222,similarity
8,2,C1050,C1350,Gamma,Gamma,6.0,578,2,12222,similarity
9,2,C1050,A450,Gamma,Alpha,4.0,4690,2,12222,similarity
10,2,C1050,B750,Gamma,Beta,4.0,6986,2,12222,similarity
11,2,C1050,A50,Gamma,Alpha,0.0,1885,2,12222,similarity
12,2,C1050,B550,Gamma,Beta,2.0,3673,2,12222,similarity
13,2,C1050,B950,Gamma, Beta,5.0,3090,2,12222,similarity
14,2,C1050,A250,Gamma,Alpha,3.0,3127,2,12222,similarity
4,3,B650,A350,Beta,Alpha,4.0,1931,2,12222,similarity
5,3,B650,A150,Beta,Alpha,0.9999999999999998,2328,2,12222,similarity
6,3,B650,B850,Beta,Beta,6.0,3171,2,12222,similarity
7,3,B650,C1150,Beta,Gamma,4.0,4795,2,12222,similarity
8,3,B650,C1350,Beta,Gamma,4.0,4375,2,12222,similarity
9,3,B650,A450,Beta,Alpha,6.0,4355,2,12222,similarity
10,3,B650,B750,Beta,Beta,6.0,939,2,12222,similarity
11,3,B650,A50,Beta,Alpha,0.0,2524,2,12222,similarity
12,3,B650,B550,Beta,Beta,4.0,4603,2,12222,similarity
13,3,B650,B950,Beta, Beta,4.0,4259,2,12222,similarity
14,3,B650,A250,Beta,Alpha,2.0,2010,2,12222,similarity
5,4,A350,A150,Alpha,Alpha,5.0,7220,2,12222,similarity
6,4,A350,B850,Alpha,Beta,4.0,2059,2,12222,similarity
7,4,A350,C1150,Alpha,Gamma,0.9999999999999998,2098,2,12222,similarity
8,4,A350,C1350,Alpha,Gamma,0.0,2163,2,12222,similarity
9,4,A350,A450,Alpha,Alpha,6.0,3067,2,12222,similarity
10,4,A350,B750,Alpha,Beta,3.0,3109,2,12222,similarity
11,4,A350,A50,Alpha,Alpha,0.9999999999999998,3386,2,12222,similarity
12,4,A350,B550,Alpha,Beta,4.0,3883,2,12222,similarity
13,4,A350,B950,Alpha, Beta,0.9999999999999998,7314,2,12222,similarity
14,4,A350,A250,Alpha,Alpha,4.0,2497,2,12222,similarity
6,5,A150,B850,Alpha,Beta,0.9999999999999998,1810,2,12222,similarity
7,5,A150,C1150,Alpha,Gamma,0.9999999999999998,522,2,12222,similarity
8,5,A150,C1350,Alpha,Gamma,0.0,2296,2,12222,similarity
9,5,A150,A450,Alpha,Alpha,2.0,3410,2,12222,similarity
10,5,A150,B750,Alpha,Beta,2.0,1227,2,12222,similarity
11,5,A150,A50,Alpha,Alpha,5.0,2386,2,12222,similarity
12,5,A150,B550,Alpha,Beta,3.0,2246,2,12222,similarity
13,5,A150,B950,Alpha, Beta,2.0,2547,2,12222,similarity
14,5,A150,A250,Alpha,Alpha,5.0,5572,2,12222,similarity
7,6,B850,C1150,Beta,Gamma,5.0,1123,2,12222,similarity
8,6,B850,C1350,Beta,Gamma,5.0,1195,2,12222,similarity
9,6,B850,A450,Beta,Alpha,3.0,1948,2,12222,similarity
10,6,B850,B750,Beta,Beta,6.0,1675,2,12222,similarity
11,6,B850,A50,Beta,Alpha,0.9999999999999998,1954,2,12222,similarity
12,6,B850,B550,Beta,Beta,5.0,3482,2,12222,similarity
13,6,B850,B950,Beta, Beta,5.0,883,2,12222,similarity
14,6,B850,A250,Beta,Alpha,3.0,1779,2,12222,similarity
8,7,C1150,C1350,Gamma,Gamma,6.0,1890,2,12222,similarity
9,7,C1150,A450,Gamma,Alpha,4.0,1939,2,12222,similarity
10,7,C1150,B750,Gamma,Beta,4.0,1889,2,12222,similarity
11,7,C1150,A50,Gamma,Alpha,0.0,1908,2,12222,similarity
12,7,C1150,B550,Gamma,Beta,3.0,2179,2,12222,similarity
13,7,C1150,B950,Gamma, Beta,5.0,2883,2,12222,similarity
14,7,C1150,A250,Gamma,Alpha,2.0,1624,2,12222,similarity
9,8,C1350,A450,Gamma,Alpha,0.9999999999999998,2155,2,12222,similarity
10,8,C1350,B750,Gamma,Beta,0.9999999999999998,989,2,12222,similarity
11,8,C1350,A50,Gamma,Alpha,0.0,1784,2,12222,similarity
12,8,C1350,B550,Gamma,Beta,0.9999999999999998,2369,2,12222,similarity
13,8,C1350,B950,Gamma, Beta,4.0,2801,2,12222,similarity
14,8,C1350,A250,Gamma,Alpha,0.9999999999999998,2786,2,12222,similarity
10,9,A450,B750,Alpha,Beta,2.0,1706,2,12222,similarity
11,9,A450,A50,Alpha,Alpha,0.0,2723,2,12222,similarity
12,9,A450,B550,Alpha,Beta,5.0,2491,2,12222,similarity
13,9,A450,B950,Alpha, Beta,4.0,1757,2,12222,similarity
14,9,A450,A250,Alpha,Alpha,4.0,5411,2,12222,similarity
11,10,B750,A50,Beta,Alpha,2.0,2065,2,12222,similarity
12,10,B750,B550,Beta,Beta,5.0,2914,2,12222,similarity
13,10,B750,B950,Beta, Beta,5.0,5755,2,12222,similarity
14,10,B750,A250,Beta,Alpha,2.0,1989,2,12222,similarity
12,11,A50,B550,Alpha,Beta,0.9999999999999998,1715,2,12222,similarity
13,11,A50,B950,Alpha, Beta,0.9999999999999998,1158,2,12222,similarity
14,11,A50,A250,Alpha,Alpha,4.0,2653,2,12222,similarity
13,12,B550,B950,Beta, Beta,5.0,2051,2,12222,similarity
14,12,B550,A250,Beta,Alpha,5.0,972,2,12222,similarity
14,13,B950,A250, Beta,Alpha,4.0,1808,2,12222,similarity
1,0,A350,C1150,Gamma,Gamma,0.9999999999999998,4450,2,12225,similarity
2,0,A350,B950,Alpha, Beta,0.9999999999999998,3266,2,12225,similarity
3,0,A350,B850,Alpha,Beta,0.9999999999999998,682,2,12225,similarity
4,0,A350,A450,Alpha,Alpha,4.0,3514,2,12225,similarity
5,0,A350,A150,Alpha,Alpha,3.0,1696,2,12225,similarity
6,0,A350,B550,Alpha,Beta,2.0,2705,2,12225,similarity
7,0,A350,C1250,Alpha,Gamma,0.0,2218,2,12225,similarity
8,0,A350,B650,Alpha,Beta,2.0,2714,2,12225,similarity
9,0,A350,A50,Alpha,Alpha,0.0,2024,2,12225,similarity
10,0,A350,C1050,Alpha,Gamma,2.0,1706,2,12225,similarity
11,0,A350,B750,Alpha,Beta,0.9999999999999998,1851,2,12225,similarity
12,0,A350,C1350,Alpha,Gamma,0.0,1610,2,12225,similarity
13,0,A350,A250,Alpha,Alpha,4.0,2579,2,12225,similarity
14,0,A350,C1450,Alpha,Gamma,0.0,2891,2,12225,similarity
2,1,C1150,B950,Gamma, Beta,5.0,2610,2,12225,similarity
3,1,C1150,B850,Gamma,Beta,5.0,787,2,12225,similarity
4,1,C1150,A450,Gamma,Alpha,3.0,2410,2,12225,similarity
5,1,C1150,A150,Gamma,Alpha,0.0,2930,2,12225,similarity
6,1,C1150,B550,Gamma,Beta,3.0,1762,2,12225,similarity
7,1,C1150,C1250,Gamma,Gamma,6.0,2446,2,12225,similarity
8,1,C1150,B650,Gamma,Beta,3.0,2667,2,12225,similarity
9,1,C1150,A50,Gamma,Alpha,0.0,1744,2,12225,similarity
10,1,C1150,C1050,Gamma,Gamma,5.0,3123,2,12225,similarity
11,1,C1150,B750,Gamma,Beta,3.0,2620,2,12225,similarity
12,1,C1150,C1350,Gamma,Gamma,4.0,1643,2,12225,similarity
13,1,C1150,A250,Gamma,Alpha,0.9999999999999998,1851,2,12225,similarity
14,1,C1150,C1450,Gamma,Gamma,5.0,2931,2,12225,similarity
3,2,B950,B850, Beta,Beta,2.0,2803,2,12225,similarity
4,2,B950,A450, Beta,Alpha,2.0,1763,2,12225,similarity
5,2,B950,A150, Beta,Alpha,0.9999999999999998,1523,2,12225,similarity
6,2,B950,B550, Beta,Beta,4.0,2315,2,12225,similarity
7,2,B950,C1250, Beta,Gamma,5.0,1440,2,12225,similarity
8,2,B950,B650, Beta,Beta,4.0,1315,2,12225,similarity
9,2,B950,A50, Beta,Alpha,0.0,1492,2,12225,similarity
10,2,B950,C1050, Beta,Gamma,5.0,5651,2,12225,similarity
11,2,B950,B750, Beta,Beta,4.0,1732,2,12225,similarity
12,2,B950,C1350, Beta,Gamma,3.0,1347,2,12225,similarity
13,2,B950,A250, Beta,Alpha,2.0,4555,2,12225,similarity
14,2,B950,C1450, Beta,Gamma,5.0,1602,2,12225,similarity
4,3,B850,A450,Beta,Alpha,4.0,1250,2,12225,similarity
5,3,B850,A150,Beta,Alpha,0.9999999999999998,4051,2,12225,similarity
6,3,B850,B550,Beta,Beta,3.0,1651,2,12225,similarity
7,3,B850,C1250,Beta,Gamma,3.0,1914,2,12225,similarity
8,3,B850,B650,Beta,Beta,4.0,2226,2,12225,similarity
9,3,B850,A50,Beta,Alpha,0.0,1578,2,12225,similarity
10,3,B850,C1050,Beta,Gamma,5.0,3010,2,12225,similarity
11,3,B850,B750,Beta,Beta,5.0,1347,2,12225,similarity
12,3,B850,C1350,Beta,Gamma,4.0,3211,2,12225,similarity
13,3,B850,A250,Beta,Alpha,2.0,1683,2,12225,similarity
14,3,B850,C1450,Beta,Gamma,3.0,1643,2,12225,similarity
5,4,A450,A150,Alpha,Alpha,2.0,5443,2,12225,similarity
6,4,A450,B550,Alpha,Beta,4.0,4299,2,12225,similarity
7,4,A450,C1250,Alpha,Gamma,0.0,2496,2,12225,similarity
8,4,A450,B650,Alpha,Beta,3.0,5675,2,12225,similarity
9,4,A450,A50,Alpha,Alpha,5.0,2363,2,12225,similarity
10,4,A450,C1050,Alpha,Gamma,4.0,1707,2,12225,similarity
11,4,A450,B750,Alpha,Beta,4.0,2057,2,12225,similarity
12,4,A450,C1350,Alpha,Gamma,0.9999999999999998,3367,2,12225,similarity
13,4,A450,A250,Alpha,Alpha,3.0,15403,2,12225,similarity
14,4,A450,C1450,Alpha,Gamma,0.9999999999999998,2203,2,12225,similarity
6,5,A150,B550,Alpha,Beta,2.0,3755,2,12225,similarity
7,5,A150,C1250,Alpha,Gamma,0.0,5771,2,12225,similarity
8,5,A150,B650,Alpha,Beta,2.0,1756,2,12225,similarity
9,5,A150,A50,Alpha,Alpha,5.0,2963,2,12225,similarity
10,5,A150,C1050,Alpha,Gamma,0.9999999999999998,2299,2,12225,similarity
11,5,A150,B750,Alpha,Beta,2.0,1796,2,12225,similarity
12,5,A150,C1350,Alpha,Gamma,0.9999999999999998,1867,2,12225,similarity
13,5,A150,A250,Alpha,Alpha,4.0,3459,2,12225,similarity
14,5,A150,C1450,Alpha,Gamma,0.0,1539,2,12225,similarity
7,6,B550,C1250,Beta,Gamma,3.0,1683,2,12225,similarity
8,6,B550,B650,Beta,Beta,4.0,5083,2,12225,similarity
9,6,B550,A50,Beta,Alpha,0.9999999999999998,1723,2,12225,similarity
10,6,B550,C1050,Beta,Gamma,4.0,1307,2,12225,similarity
11,6,B550,B750,Beta,Beta,5.0,1907,2,12225,similarity
12,6,B550,C1350,Beta,Gamma,2.0,1811,2,12225,similarity
13,6,B550,A250,Beta,Alpha,2.0,1579,2,12225,similarity
14,6,B550,C1450,Beta,Gamma,0.9999999999999998,1644,2,12225,similarity
8,7,C1250,B650,Gamma,Beta,2.0,2332,2,12225,similarity
9,7,C1250,A50,Gamma,Alpha,0.0,1572,2,12225,similarity
10,7,C1250,C1050,Gamma,Gamma,4.0,2677,2,12225,similarity
11,7,C1250,B750,Gamma,Beta,4.0,2594,2,12225,similarity
12,7,C1250,C1350,Gamma,Gamma,5.0,1562,2,12225,similarity
13,7,C1250,A250,Gamma,Alpha,0.9999999999999998,1923,2,12225,similarity
14,7,C1250,C1450,Gamma,Gamma,5.0,3091,2,12225,similarity
9,8,B650,A50,Beta,Alpha,0.0,1691,2,12225,similarity
10,8,B650,C1050,Beta,Gamma,2.0,2323,2,12225,similarity
11,8,B650,B750,Beta,Beta,5.0,2716,2,12225,similarity
12,8,B650,C1350,Beta,Gamma,2.0,1555,2,12225,similarity
13,8,B650,A250,Beta,Alpha,3.0,1867,2,12225,similarity
14,8,B650,C1450,Beta,Gamma,4.0,6116,2,12225,similarity
10,9,A50,C1050,Alpha,Gamma,0.0,1419,2,12225,similarity
11,9,A50,B750,Alpha,Beta,0.0,1266,2,12225,similarity
12,9,A50,C1350,Alpha,Gamma,0.0,555,2,12225,similarity
13,9,A50,A250,Alpha,Alpha,0.0,482,2,12225,similarity
14,9,A50,C1450,Alpha,Gamma,0.0,948,2,12225,similarity
11,10,C1050,B750,Gamma,Beta,3.0,9214,2,12225,similarity
12,10,C1050,C1350,Gamma,Gamma,0.9999999999999998,2643,2,12225,similarity
13,10,C1050,A250,Gamma,Alpha,0.9999999999999998,2906,2,12225,similarity
14,10,C1050,C1450,Gamma,Gamma,2.0,2154,2,12225,similarity
12,11,B750,C1350,Beta,Gamma,2.0,1401,2,12225,similarity
13,11,B750,A250,Beta,Alpha,0.9999999999999998,1443,2,12225,similarity
14,11,B750,C1450,Beta,Gamma,0.9999999999999998,1218,2,12225,similarity
13,12,C1350,A250,Gamma,Alpha,0.0,4070,2,12225,similarity
14,12,C1350,C1450,Gamma,Gamma,6.0,1963,2,12225,similarity
14,13,A250,C1450,Alpha,Gamma,0.9999999999999998,2067,2,12225,similarity
1,0,C1350,B950, Beta, Beta,0.0,6750,2,12228,similarity
2,0,C1350,B850,Gamma,Beta,0.0,1128,2,12228,similarity
3,0,C1350,A150,Gamma,Alpha,0.0,1131,2,12228,similarity
4,0,C1350,C1050,Gamma,Gamma,4.0,3693,2,12228,similarity
5,0,C1350,B750,Gamma,Beta,3.0,1815,2,12228,similarity
6,0,C1350,A50,Gamma,Alpha,0.0,1419,2,12228,similarity
7,0,C1350,C1150,Gamma,Gamma,5.0,2057,2,12228,similarity
8,0,C1350,A250,Gamma,Alpha,2.0,1586,2,12228,similarity
9,0,C1350,C1450,Gamma,Gamma,5.0,2515,2,12228,similarity
10,0,C1350,B550,Gamma,Beta,3.0,2338,2,12228,similarity
11,0,C1350,C1250,Gamma,Gamma,5.0,1546,2,12228,similarity
12,0,C1350,A450,Gamma,Alpha,2.0,2378,2,12228,similarity
13,0,C1350,B650,Gamma,Beta,4.0,1851,2,12228,similarity
14,0,C1350,A350,Gamma,Alpha,3.0,2563,2,12228,similarity
2,1,B950,B850, Beta,Beta,5.0,3019,2,12228,similarity
3,1,B950,A150, Beta,Alpha,0.0,4096,2,12228,similarity
4,1,B950,C1050, Beta,Gamma,5.0,2259,2,12228,similarity
5,1,B950,B750, Beta,Beta,5.0,3578,2,12228,similarity
6,1,B950,A50, Beta,Alpha,0.0,2060,2,12228,similarity
7,1,B950,C1150, Beta,Gamma,4.0,2681,2,12228,similarity
8,1,B950,A250, Beta,Alpha,0.9999999999999998,4346,2,12228,similarity
9,1,B950,C1450, Beta,Gamma,2.0,2545,2,12228,similarity
10,1,B950,B550, Beta,Beta,2.0,2706,2,12228,similarity
11,1,B950,C1250, Beta,Gamma,3.0,2674,2,12228,similarity
12,1,B950,A450, Beta,Alpha,2.0,2594,2,12228,similarity
13,1,B950,B650, Beta,Beta,4.0,4240,2,12228,similarity
14,1,B950,A350, Beta,Alpha,2.0,1556,2,12228,similarity
3,2,B850,A150,Beta,Alpha,0.9999999999999998,2290,2,12228,similarity
4,2,B850,C1050,Beta,Gamma,4.0,1898,2,12228,similarity
5,2,B850,B750,Beta,Beta,5.0,7226,2,12228,similarity
6,2,B850,A50,Beta,Alpha,0.9999999999999998,1938,2,12228,similarity
7,2,B850,C1150,Beta,Gamma,5.0,1982,2,12228,similarity
8,2,B850,A250,Beta,Alpha,2.0,7284,2,12228,similarity
9,2,B850,C1450,Beta,Gamma,3.0,7050,2,12228,similarity
10,2,B850,B550,Beta,Beta,4.0,2010,2,12228,similarity
11,2,B850,C1250,Beta,Gamma,3.0,2627,2,12228,similarity
12,2,B850,A450,Beta,Alpha,4.0,1699,2,12228,similarity
13,2,B850,B650,Beta,Beta,4.0,2387,2,12228,similarity
14,2,B850,A350,Beta,Alpha,2.0,2619,2,12228,similarity
4,3,A150,C1050,Alpha,Gamma,0.9999999999999998,1874,2,12228,similarity
5,3,A150,B750,Alpha,Beta,0.9999999999999998,7756,2,12228,similarity
6,3,A150,A50,Alpha,Alpha,5.0,2242,2,12228,similarity
7,3,A150,C1150,Alpha,Gamma,0.9999999999999998,2411,2,12228,similarity
8,3,A150,A250,Alpha,Alpha,5.0,2355,2,12228,similarity
9,3,A150,C1450,Alpha,Gamma,0.0,2683,2,12228,similarity
10,3,A150,B550,Alpha,Beta,0.9999999999999998,1891,2,12228,similarity
11,3,A150,C1250,Alpha,Gamma,0.0,1538,2,12228,similarity
12,3,A150,A450,Alpha,Alpha,4.0,2571,2,12228,similarity
13,3,A150,B650,Alpha,Beta,4.0,930,2,12228,similarity
14,3,A150,A350,Alpha,Alpha,5.0,1867,2,12228,similarity
5,4,C1050,B750,Gamma,Beta,5.0,1811,2,12228,similarity
6,4,C1050,A50,Gamma,Alpha,0.0,1753,2,12228,similarity
7,4,C1050,C1150,Gamma,Gamma,5.0,1778,2,12228,similarity
8,4,C1050,A250,Gamma,Alpha,0.9999999999999998,3306,2,12228,similarity
9,4,C1050,C1450,Gamma,Gamma,2.0,2131,2,12228,similarity
10,4,C1050,B550,Gamma,Beta,2.0,3738,2,12228,similarity
11,4,C1050,C1250,Gamma,Gamma,5.0,2008,2,12228,similarity
12,4,C1050,A450,Gamma,Alpha,2.0,3283,2,12228,similarity
13,4,C1050,B650,Gamma,Beta,4.0,1659,2,12228,similarity
14,4,C1050,A350,Gamma,Alpha,2.0,2070,2,12228,similarity
6,5,B750,A50,Beta,Alpha,0.0,1938,2,12228,similarity
7,5,B750,C1150,Beta,Gamma,4.0,4227,2,12228,similarity
8,5,B750,A250,Beta,Alpha,2.0,1403,2,12228,similarity
9,5,B750,C1450,Beta,Gamma,4.0,3236,2,12228,similarity
10,5,B750,B550,Beta,Beta,4.0,4058,2,12228,similarity
11,5,B750,C1250,Beta,Gamma,3.0,2362,2,12228,similarity
12,5,B750,A450,Beta,Alpha,4.0,1634,2,12228,similarity
13,5,B750,B650,Beta,Beta,5.0,2491,2,12228,similarity
14,5,B750,A350,Beta,Alpha,2.0,2829,2,12228,similarity
7,6,A50,C1150,Alpha,Gamma,0.0,1484,2,12228,similarity
8,6,A50,A250,Alpha,Alpha,2.0,2250,2,12228,similarity
9,6,A50,C1450,Alpha,Gamma,0.0,1483,2,12228,similarity
10,6,A50,B550,Alpha,Beta,0.0,1164,2,12228,similarity
11,6,A50,C1250,Alpha,Gamma,0.0,985,2,12228,similarity
12,6,A50,A450,Alpha,Alpha,2.0,1586,2,12228,similarity
13,6,A50,B650,Alpha,Beta,2.0,883,2,12228,similarity
14,6,A50,A350,Alpha,Alpha,3.0,2267,2,12228,similarity
8,7,C1150,A250,Gamma,Alpha,0.9999999999999998,8005,2,12228,similarity
9,7,C1150,C1450,Gamma,Gamma,4.0,2259,2,12228,similarity
10,7,C1150,B550,Gamma,Beta,2.0,2978,2,12228,similarity
11,7,C1150,C1250,Gamma,Gamma,5.0,2098,2,12228,similarity
12,7,C1150,A450,Gamma,Alpha,2.0,2002,2,12228,similarity
13,7,C1150,B650,Gamma,Beta,3.0,4067,2,12228,similarity
14,7,C1150,A350,Gamma,Alpha,2.0,1940,2,12228,similarity
9,8,A250,C1450,Alpha,Gamma,4.0,2163,2,12228,similarity
10,8,A250,B550,Alpha,Beta,4.0,2952,2,12228,similarity
11,8,A250,C1250,Alpha,Gamma,0.9999999999999998,3923,2,12228,similarity
12,8,A250,A450,Alpha,Alpha,5.0,2131,2,12228,similarity
13,8,A250,B650,Alpha,Beta,3.0,2083,2,12228,similarity
14,8,A250,A350,Alpha,Alpha,5.0,1986,2,12228,similarity
10,9,C1450,B550,Gamma,Beta,2.0,1771,2,12228,similarity
11,9,C1450,C1250,Gamma,Gamma,5.0,1874,2,12228,similarity
12,9,C1450,A450,Gamma,Alpha,2.0,2067,2,12228,similarity
13,9,C1450,B650,Gamma,Beta,3.0,1297,2,12228,similarity
14,9,C1450,A350,Gamma,Alpha,2.0,1211,2,12228,similarity
11,10,B550,C1250,Beta,Gamma,3.0,5010,2,12228,similarity
12,10,B550,A450,Beta,Alpha,5.0,1347,2,12228,similarity
13,10,B550,B650,Beta,Beta,5.0,1899,2,12228,similarity
14,10,B550,A350,Beta,Alpha,5.0,1949,2,12228,similarity
12,11,C1250,A450,Gamma,Alpha,2.0,3302,2,12228,similarity
13,11,C1250,B650,Gamma,Beta,3.0,1827,2,12228,similarity
14,11,C1250,A350,Gamma,Alpha,2.0,19238,2,12228,similarity
13,12,A450,B650,Alpha,Beta,5.0,2654,2,12228,similarity
14,12,A450,A350,Alpha,Alpha,5.0,3698,2,12228,similarity
14,13,B650,A350,Beta,Alpha,4.0,2901,2,12228,similarity
1,0,C1450,B550,Beta,Beta,4.0,14803,2,12250,similarity
2,0,C1450,A450,Gamma,Alpha,4.0,2274,2,12250,similarity
3,0,C1450,A350,Gamma,Alpha,4.0,2867,2,12250,similarity
4,0,C1450,B750,Gamma,Beta,4.0,5287,2,12250,similarity
5,0,C1450,B950,Gamma, Beta,4.0,1601,2,12250,similarity
6,0,C1450,B850,Gamma,Beta,4.0,923,2,12250,similarity
7,0,C1450,C1150,Gamma,Gamma,5.0,2106,2,12250,similarity
8,0,C1450,C1250,Gamma,Gamma,5.0,898,2,12250,similarity
9,0,C1450,A250,Gamma,Alpha,3.0,4203,2,12250,similarity
10,0,C1450,A50,Gamma,Alpha,2.0,1963,2,12250,similarity
11,0,C1450,A150,Gamma,Alpha,2.0,1453,2,12250,similarity
12,0,C1450,C1350,Gamma,Gamma,6.0,5394,2,12250,similarity
13,0,C1450,C1050,Gamma,Gamma,5.0,2731,2,12250,similarity
14,0,C1450,B650,Gamma,Beta,4.0,1966,2,12250,similarity
2,1,B550,A450,Beta,Alpha,5.0,10208,2,12250,similarity
3,1,B550,A350,Beta,Alpha,5.0,7386,2,12250,similarity
4,1,B550,B750,Beta,Beta,5.0,10212,2,12250,similarity
5,1,B550,B950,Beta, Beta,4.0,3691,2,12250,similarity
6,1,B550,B850,Beta,Beta,4.0,1738,2,12250,similarity
7,1,B550,C1150,Beta,Gamma,3.0,3483,2,12250,similarity
8,1,B550,C1250,Beta,Gamma,3.0,3539,2,12250,similarity
9,1,B550,A250,Beta,Alpha,4.0,3392,2,12250,similarity
10,1,B550,A50,Beta,Alpha,3.0,2131,2,12250,similarity
11,1,B550,A150,Beta,Alpha,4.0,1881,2,12250,similarity
12,1,B550,C1350,Beta,Gamma,3.0,2363,2,12250,similarity
13,1,B550,C1050,Beta,Gamma,4.0,3089,2,12250,similarity
14,1,B550,B650,Beta,Beta,5.0,3651,2,12250,similarity
3,2,A450,A350,Alpha,Alpha,5.0,2138,2,12250,similarity
4,2,A450,B750,Alpha,Beta,4.0,2203,2,12250,similarity
5,2,A450,B950,Alpha, Beta,4.0,2048,2,12250,similarity
6,2,A450,B850,Alpha,Beta,4.0,3385,2,12250,similarity
7,2,A450,C1150,Alpha,Gamma,4.0,1363,2,12250,similarity
8,2,A450,C1250,Alpha,Gamma,4.0,867,2,12250,similarity
9,2,A450,A250,Alpha,Alpha,4.0,914,2,12250,similarity
10,2,A450,A50,Alpha,Alpha,3.0,2346,2,12250,similarity
11,2,A450,A150,Alpha,Alpha,3.0,1611,2,12250,similarity
12,2,A450,C1350,Alpha,Gamma,3.0,1600,2,12250,similarity
13,2,A450,C1050,Alpha,Gamma,4.0,1643,2,12250,similarity
14,2,A450,B650,Alpha,Beta,5.0,2259,2,12250,similarity
4,3,A350,B750,Alpha,Beta,5.0,970,2,12250,similarity
5,3,A350,B950,Alpha, Beta,4.0,1538,2,12250,similarity
6,3,A350,B850,Alpha,Beta,4.0,2019,2,12250,similarity
7,3,A350,C1150,Alpha,Gamma,3.0,4588,2,12250,similarity
8,3,A350,C1250,Alpha,Gamma,3.0,1387,2,12250,similarity
9,3,A350,A250,Alpha,Alpha,5.0,2711,2,12250,similarity
10,3,A350,A50,Alpha,Alpha,2.0,3394,2,12250,similarity
11,3,A350,A150,Alpha,Alpha,3.0,2995,2,12250,similarity
12,3,A350,C1350,Alpha,Gamma,2.0,3114,2,12250,similarity
13,3,A350,C1050,Alpha,Gamma,3.0,1403,2,12250,similarity
14,3,A350,B650,Alpha,Beta,4.0,2091,2,12250,similarity
5,4,B750,B950,Beta, Beta,5.0,1435,2,12250,similarity
6,4,B750,B850,Beta,Beta,5.0,1427,2,12250,similarity
7,4,B750,C1150,Beta,Gamma,5.0,4275,2,12250,similarity
8,4,B750,C1250,Beta,Gamma,5.0,1467,2,12250,similarity
9,4,B750,A250,Beta,Alpha,3.0,2019,2,12250,similarity
10,4,B750,A50,Beta,Alpha,2.0,1987,2,12250,similarity
11,4,B750,A150,Beta,Alpha,3.0,1939,2,12250,similarity
12,4,B750,C1350,Beta,Gamma,3.0,4307,2,12250,similarity
13,4,B750,C1050,Beta,Gamma,5.0,3299,2,12250,similarity
14,4,B750,B650,Beta,Beta,5.0,1233,2,12250,similarity
6,5,B950,B850, Beta,Beta,5.0,966,2,12250,similarity
7,5,B950,C1150, Beta,Gamma,5.0,731,2,12250,similarity
8,5,B950,C1250, Beta,Gamma,5.0,501,2,12250,similarity
9,5,B950,A250, Beta,Alpha,3.0,1804,2,12250,similarity
10,5,B950,A50, Beta,Alpha,2.0,1763,2,12250,similarity
11,5,B950,A150, Beta,Alpha,3.0,2443,2,12250,similarity
12,5,B950,C1350, Beta,Gamma,5.0,2459,2,12250,similarity
13,5,B950,C1050, Beta,Gamma,5.0,859,2,12250,similarity
14,5,B950,B650, Beta,Beta,4.0,2298,2,12250,similarity
7,6,B850,C1150,Beta,Gamma,5.0,1595,2,12250,similarity
8,6,B850,C1250,Beta,Gamma,5.0,757,2,12250,similarity
9,6,B850,A250,Beta,Alpha,3.0,2042,2,12250,similarity
10,6,B850,A50,Beta,Alpha,2.0,1378,2,12250,similarity
11,6,B850,A150,Beta,Alpha,3.0,1146,2,12250,similarity
12,6,B850,C1350,Beta,Gamma,5.0,1914,2,12250,similarity
13,6,B850,C1050,Beta,Gamma,5.0,524,2,12250,similarity
14,6,B850,B650,Beta,Beta,5.0,1178,2,12250,similarity
8,7,C1150,C1250,Gamma,Gamma,5.0,634,2,12250,similarity
9,7,C1150,A250,Gamma,Alpha,3.0,1915,2,12250,similarity
10,7,C1150,A50,Gamma,Alpha,2.0,1009,2,12250,similarity
11,7,C1150,A150,Gamma,Alpha,3.0,1162,2,12250,similarity
12,7,C1150,C1350,Gamma,Gamma,5.0,1851,2,12250,similarity
13,7,C1150,C1050,Gamma,Gamma,5.0,738,2,12250,similarity
14,7,C1150,B650,Gamma,Beta,4.0,1564,2,12250,similarity
9,8,C1250,A250,Gamma,Alpha,3.0,1490,2,12250,similarity
10,8,C1250,A50,Gamma,Alpha,2.0,1129,2,12250,similarity
11,8,C1250,A150,Gamma,Alpha,3.0,1315,2,12250,similarity
12,8,C1250,C1350,Gamma,Gamma,5.0,1539,2,12250,similarity
13,8,C1250,C1050,Gamma,Gamma,5.0,924,2,12250,similarity
14,8,C1250,B650,Gamma,Beta,4.0,2649,2,12250,similarity
10,9,A250,A50,Alpha,Alpha,2.0,1715,2,12250,similarity
11,9,A250,A150,Alpha,Alpha,5.0,2778,2,12250,similarity
12,9,A250,C1350,Alpha,Gamma,2.0,3931,2,12250,similarity
13,9,A250,C1050,Alpha,Gamma,3.0,3523,2,12250,similarity
14,9,A250,B650,Alpha,Beta,4.0,3106,2,12250,similarity
11,10,A50,A150,Alpha,Alpha,4.0,5395,2,12250,similarity
12,10,A50,C1350,Alpha,Gamma,0.9999999999999998,4521,2,12250,similarity
