trial,block,stimId,category,response,rt,condition,id,phase
0,0,A50,Alpha,a,2415,2,12143,study
1,0,A350,Alpha,a,1242,2,12143,study
2,0,A450,Alpha,a,612,2,12143,study
3,0,A150,Alpha,a,2781,2,12143,study
4,0,A250,Alpha,a,476,2,12143,study
0,1,A450,Alpha,a,425,2,12143,study
1,1,A250,Alpha,a,391,2,12143,study
2,1,A150,Alpha,a,335,2,12143,study
3,1,A350,Alpha,a,10141,2,12143,study
4,1,A50,Alpha,a,1072,2,12143,study
0,2,A350,Alpha,a,627,2,12143,study
1,2,A150,Alpha,a,458,2,12143,study
2,2,A50,Alpha,a,359,2,12143,study
3,2,A250,Alpha,a,809,2,12143,study
4,2,A450,Alpha,a,839,2,12143,study
0,3,A150,Alpha,a,638,2,12143,study
1,3,A450,Alpha,a,1382,2,12143,study
2,3,A50,Alpha,a,1187,2,12143,study
3,3,A350,Alpha,a,787,2,12143,study
4,3,A250,Alpha,a,612,2,12143,study
0,4,A250,Alpha,a,642,2,12143,study
1,4,A50,Alpha,a,751,2,12143,study
2,4,A150,Alpha,a,489,2,12143,study
3,4,A450,Alpha,a,564,2,12143,study
4,4,A350,Alpha,a,452,2,12143,study
0,0,A150,Alpha,a,7174,2,12160,study
1,0,A350,Alpha,a,5677,2,12160,study
2,0,A450,Alpha,a,1773,2,12160,study
3,0,A250,Alpha,a,2501,2,12160,study
4,0,A50,Alpha,a,1182,2,12160,study
0,1,A50,Alpha,a,1208,2,12160,study
1,1,A150,Alpha,a,3687,2,12160,study
2,1,A450,Alpha,a,901,2,12160,study
3,1,A250,Alpha,a,1094,2,12160,study
4,1,A350,Alpha,a,709,2,12160,study
0,2,A450,Alpha,a,586,2,12160,study
1,2,A250,Alpha,a,1098,2,12160,study
2,2,A350,Alpha,a,1501,2,12160,study
3,2,A150,Alpha,a,849,2,12160,study
4,2,A50,Alpha,a,775,2,12160,study
0,3,A450,Alpha,a,967,2,12160,study
1,3,A350,Alpha,a,790,2,12160,study
2,3,A50,Alpha,a,784,2,12160,study
3,3,A150,Alpha,a,968,2,12160,study
4,3,A250,Alpha,a,865,2,12160,study
0,4,A450,Alpha,a,828,2,12160,study
1,4,A50,Alpha,a,1330,2,12160,study
2,4,A350,Alpha,a,893,2,12160,study
3,4,A150,Alpha,a,920,2,12160,study
4,4,A250,Alpha,a,755,2,12160,study
0,0,A450,Alpha,a,6140,2,12163,study
1,0,A350,Alpha,a,4418,2,12163,study
2,0,A250,Alpha,a,3573,2,12163,study
3,0,A150,Alpha,a,2388,2,12163,study
4,0,A50,Alpha,a,2443,2,12163,study
0,1,A150,Alpha,a,2516,2,12163,study
1,1,A50,Alpha,a,2821,2,12163,study
2,1,A450,Alpha,a,2528,2,12163,study
3,1,A250,Alpha,a,3258,2,12163,study
4,1,A350,Alpha,a,3902,2,12163,study
0,2,A50,Alpha,a,2471,2,12163,study
1,2,A350,Alpha,a,3936,2,12163,study
2,2,A250,Alpha,a,2540,2,12163,study
3,2,A450,Alpha,a,3193,2,12163,study
4,2,A150,Alpha,a,4140,2,12163,study
0,3,A250,Alpha,a,3606,2,12163,study
1,3,A50,Alpha,a,2899,2,12163,study
2,3,A350,Alpha,a,3982,2,12163,study
3,3,A150,Alpha,a,2917,2,12163,study
4,3,A450,Alpha,a,3767,2,12163,study
0,4,A250,Alpha,a,3079,2,12163,study
1,4,A350,Alpha,a,3202,2,12163,study
2,4,A450,Alpha,a,2408,2,12163,study
3,4,A150,Alpha,a,3807,2,12163,study
4,4,A50,Alpha,a,3269,2,12163,study
0,0,A450,Alpha,a,4252,2,12185,study
1,0,A250,Alpha,a,1858,2,12185,study
2,0,A50,Alpha,a,1597,2,12185,study
3,0,A150,Alpha,a,3332,2,12185,study
4,0,A350,Alpha,a,2493,2,12185,study
0,1,A450,Alpha,a,1456,2,12185,study
1,1,A350,Alpha,a,1468,2,12185,study
2,1,A150,Alpha,a,1185,2,12185,study
3,1,A50,Alpha,a,1056,2,12185,study
4,1,A250,Alpha,a,2309,2,12185,study
0,2,A250,Alpha,a,823,2,12185,study
1,2,A50,Alpha,a,983,2,12185,study
2,2,A150,Alpha,a,918,2,12185,study
3,2,A450,Alpha,a,1121,2,12185,study
4,2,A350,Alpha,a,1266,2,12185,study
0,3,A250,Alpha,a,1199,2,12185,study
1,3,A350,Alpha,a,990,2,12185,study
2,3,A150,Alpha,a,858,2,12185,study
3,3,A450,Alpha,a,906,2,12185,study
4,3,A50,Alpha,a,1262,2,12185,study
0,4,A450,Alpha,a,779,2,12185,study
1,4,A150,Alpha,a,779,2,12185,study
2,4,A250,Alpha,a,1166,2,12185,study
3,4,A350,Alpha,a,910,2,12185,study
4,4,A50,Alpha,a,614,2,12185,study
0,0,A50,Alpha,a,13206,2,12188,study
1,0,A150,Alpha,a,7045,2,12188,study
2,0,A350,Alpha,a,3479,2,12188,study
3,0,A450,Alpha,a,3365,2,12188,study
4,0,A250,Alpha,a,4707,2,12188,study
0,1,A50,Alpha,a,2869,2,12188,study
1,1,A450,Alpha,a,5033,2,12188,study
2,1,A250,Alpha,a,3142,2,12188,study
3,1,A150,Alpha,a,3750,2,12188,study
4,1,A350,Alpha,a,4119,2,12188,study
0,2,A150,Alpha,a,2519,2,12188,study
1,2,A250,Alpha,a,3097,2,12188,study
2,2,A350,Alpha,a,3052,2,12188,study
3,2,A450,Alpha,a,4464,2,12188,study
4,2,A50,Alpha,a,3437,2,12188,study
0,3,A450,Alpha,a,3337,2,12188,study
1,3,A50,Alpha,a,3906,2,12188,study
2,3,A250,Alpha,a,2766,2,12188,study
3,3,A350,Alpha,a,2835,2,12188,study
4,3,A150,Alpha,a,3713,2,12188,study
0,4,A50,Alpha,a,2964,2,12188,study
1,4,A250,Alpha,a,5995,2,12188,study
2,4,A350,Alpha,a,3626,2,12188,study
3,4,A150,Alpha,a,2264,2,12188,study
4,4,A450,Alpha,a,4229,2,12188,study
0,0,A450,Alpha,a,2779,2,12191,study
1,0,A50,Alpha,a,1322,2,12191,study
2,0,A250,Alpha,a,1042,2,12191,study
3,0,A150,Alpha,a,1358,2,12191,study
4,0,A350,Alpha,a,1444,2,12191,study
0,1,A150,Alpha,a,1115,2,12191,study
1,1,A250,Alpha,a,1433,2,12191,study
2,1,A50,Alpha,a,1611,2,12191,study
3,1,A450,Alpha,a,1505,2,12191,study
4,1,A350,Alpha,a,989,2,12191,study
0,2,A150,Alpha,a,1232,2,12191,study
1,2,A250,Alpha,a,1135,2,12191,study
2,2,A450,Alpha,a,880,2,12191,study
3,2,A50,Alpha,a,907,2,12191,study
4,2,A350,Alpha,a,1106,2,12191,study
0,3,A350,Alpha,a,906,2,12191,study
1,3,A450,Alpha,a,806,2,12191,study
2,3,A50,Alpha,a,861,2,12191,study
3,3,A150,Alpha,a,761,2,12191,study
4,3,A250,Alpha,a,898,2,12191,study
0,4,A250,Alpha,a,1373,2,12191,study
1,4,A150,Alpha,a,909,2,12191,study
2,4,A450,Alpha,a,841,2,12191,study
3,4,A350,Alpha,a,637,2,12191,study
4,4,A50,Alpha,a,806,2,12191,study
0,0,A250,Alpha,a,4989,2,12192,study
1,0,A50,Alpha,a,2750,2,12192,study
2,0,A450,Alpha,a,1018,2,12192,study
3,0,A150,Alpha,a,1165,2,12192,study
4,0,A350,Alpha,a,2078,2,12192,study
0,1,A350,Alpha,a,1918,2,12192,study
1,1,A450,Alpha,a,1033,2,12192,study
2,1,A150,Alpha,a,1040,2,12192,study
3,1,A250,Alpha,a,1469,2,12192,study
4,1,A50,Alpha,a,1019,2,12192,study
0,2,A450,Alpha,a,1346,2,12192,study
1,2,A50,Alpha,a,897,2,12192,study
2,2,A350,Alpha,a,852,2,12192,study
3,2,A150,Alpha,a,1275,2,12192,study
4,2,A250,Alpha,a,1200,2,12192,study
0,3,A450,Alpha,a,2486,2,12192,study
1,3,A350,Alpha,a,1017,2,12192,study
2,3,A50,Alpha,a,865,2,12192,study
3,3,A150,Alpha,a,1228,2,12192,study
4,3,A250,Alpha,a,1058,2,12192,study
0,4,A50,Alpha,a,954,2,12192,study
1,4,A450,Alpha,a,1433,2,12192,study
2,4,A350,Alpha,a,1281,2,12192,study
3,4,A150,Alpha,a,1084,2,12192,study
4,4,A250,Alpha,a,944,2,12192,study
0,0,A350,Alpha,a,6216,2,12134,study
1,0,A450,Alpha,a,3794,2,12134,study
2,0,A250,Alpha,a,1994,2,12134,study
3,0,A150,Alpha,a,2407,2,12134,study
4,0,A50,Alpha,a,1680,2,12134,study
0,1,A350,Alpha,a,2411,2,12134,study
1,1,A450,Alpha,a,1210,2,12134,study
2,1,A150,Alpha,a,1481,2,12134,study
3,1,A250,Alpha,a,2188,2,12134,study
4,1,A50,Alpha,a,1349,2,12134,study
0,2,A350,Alpha,a,1501,2,12134,study
1,2,A50,Alpha,a,957,2,12134,study
2,2,A450,Alpha,a,1730,2,12134,study
3,2,A250,Alpha,a,1348,2,12134,study
4,2,A150,Alpha,a,1093,2,12134,study
0,3,A150,Alpha,a,545,2,12134,study
1,3,A350,Alpha,a,1211,2,12134,study
2,3,A250,Alpha,a,2714,2,12134,study
3,3,A450,Alpha,a,795,2,12134,study
4,3,A50,Alpha,a,781,2,12134,study
0,4,A350,Alpha,a,692,2,12134,study
1,4,A50,Alpha,a,479,2,12134,study
2,4,A450,Alpha,a,636,2,12134,study
3,4,A150,Alpha,a,555,2,12134,study
4,4,A250,Alpha,a,1068,2,12134,study
0,0,A450,Alpha,a,5057,2,12194,study
1,0,A350,Alpha,a,2120,2,12194,study
2,0,A50,Alpha,a,2731,2,12194,study
3,0,A250,Alpha,a,2396,2,12194,study
4,0,A150,Alpha,a,1204,2,12194,study
0,1,A350,Alpha,a,943,2,12194,study
1,1,A250,Alpha,a,1267,2,12194,study
2,1,A450,Alpha,a,1071,2,12194,study
3,1,A50,Alpha,a,1005,2,12194,study
4,1,A150,Alpha,a,1012,2,12194,study
0,2,A150,Alpha,a,1170,2,12194,study
1,2,A450,Alpha,a,1220,2,12194,study
2,2,A350,Alpha,a,1544,2,12194,study
3,2,A250,Alpha,a,844,2,12194,study
4,2,A50,Alpha,a,741,2,12194,study
0,3,A350,Alpha,a,752,2,12194,study
1,3,A150,Alpha,a,643,2,12194,study
2,3,A50,Alpha,a,943,2,12194,study
3,3,A250,Alpha,a,1217,2,12194,study
4,3,A450,Alpha,a,912,2,12194,study
0,4,A350,Alpha,a,827,2,12194,study
1,4,A450,Alpha,a,1024,2,12194,study
2,4,A150,Alpha,a,824,2,12194,study
3,4,A250,Alpha,a,662,2,12194,study
4,4,A50,Alpha,a,811,2,12194,study
0,0,A450,Alpha,a,1848,2,12197,study
1,0,A150,Alpha,a,539,2,12197,study
2,0,A350,Alpha,a,2893,2,12197,study
3,0,A250,Alpha,a,2482,2,12197,study
4,0,A50,Alpha,a,1021,2,12197,study
0,1,A50,Alpha,a,644,2,12197,study
1,1,A450,Alpha,a,1576,2,12197,study
2,1,A250,Alpha,a,641,2,12197,study
3,1,A150,Alpha,a,559,2,12197,study
4,1,A350,Alpha,a,559,2,12197,study
0,2,A350,Alpha,a,465,2,12197,study
1,2,A250,Alpha,a,574,2,12197,study
2,2,A50,Alpha,a,495,2,12197,study
3,2,A150,Alpha,a,602,2,12197,study
4,2,A450,Alpha,a,410,2,12197,study
0,3,A150,Alpha,a,512,2,12197,study
1,3,A350,Alpha,a,404,2,12197,study
2,3,A450,Alpha,a,388,2,12197,study
3,3,A250,Alpha,a,682,2,12197,study
4,3,A50,Alpha,a,486,2,12197,study
0,4,A450,Alpha,a,458,2,12197,study
1,4,A250,Alpha,a,439,2,12197,study
2,4,A150,Alpha,a,382,2,12197,study
3,4,A350,Alpha,a,461,2,12197,study
4,4,A50,Alpha,a,338,2,12197,study
0,0,A50,Alpha,a,3659,2,12200,study
1,0,A250,Alpha,a,4363,2,12200,study
2,0,A150,Alpha,a,2396,2,12200,study
3,0,A350,Alpha,a,2259,2,12200,study
4,0,A450,Alpha,a,1698,2,12200,study
0,1,A250,Alpha,a,2106,2,12200,study
1,1,A150,Alpha,a,1822,2,12200,study
2,1,A50,Alpha,a,1539,2,12200,study
3,1,A450,Alpha,a,1350,2,12200,study
4,1,A350,Alpha,a,1439,2,12200,study
0,2,A50,Alpha,a,1387,2,12200,study
1,2,A450,Alpha,a,1484,2,12200,study
2,2,A250,Alpha,a,1495,2,12200,study
3,2,A350,Alpha,a,1474,2,12200,study
4,2,A150,Alpha,a,1383,2,12200,study
0,3,A50,Alpha,a,1445,2,12200,study
1,3,A150,Alpha,a,1761,2,12200,study
2,3,A350,Alpha,a,1428,2,12200,study
3,3,A250,Alpha,a,2121,2,12200,study
4,3,A450,Alpha,a,1935,2,12200,study
0,4,A350,Alpha,a,1766,2,12200,study
1,4,A150,Alpha,a,5143,2,12200,study
2,4,A450,Alpha,a,1134,2,12200,study
3,4,A250,Alpha,a,1160,2,12200,study
4,4,A50,Alpha,a,1288,2,12200,study
0,0,A50,Alpha,a,9987,2,12203,study
1,0,A250,Alpha,a,4597,2,12203,study
2,0,A150,Alpha,a,2412,2,12203,study
3,0,A450,Alpha,a,3118,2,12203,study
4,0,A350,Alpha,a,3004,2,12203,study
0,1,A50,Alpha,a,2426,2,12203,study
1,1,A450,Alpha,a,2489,2,12203,study
2,1,A250,Alpha,a,2332,2,12203,study
3,1,A150,Alpha,a,2207,2,12203,study
4,1,A350,Alpha,a,2404,2,12203,study
0,2,A350,Alpha,a,2291,2,12203,study
1,2,A450,Alpha,a,2606,2,12203,study
2,2,A50,Alpha,a,2278,2,12203,study
3,2,A150,Alpha,a,2129,2,12203,study
4,2,A250,Alpha,a,2410,2,12203,study
0,3,A250,Alpha,a,2233,2,12203,study
1,3,A150,Alpha,a,2286,2,12203,study
2,3,A450,Alpha,a,2250,2,12203,study
3,3,A50,Alpha,a,1781,2,12203,study
4,3,A350,Alpha,a,2142,2,12203,study
0,4,A450,Alpha,a,1998,2,12203,study
1,4,A250,Alpha,a,1781,2,12203,study
2,4,A350,Alpha,a,2063,2,12203,study
3,4,A50,Alpha,a,1473,2,12203,study
4,4,A150,Alpha,a,1784,2,12203,study
0,0,A450,Alpha,a,28705,2,12219,study
1,0,A250,Alpha,a,6198,2,12219,study
2,0,A150,Alpha,a,5052,2,12219,study
3,0,A50,Alpha,a,4063,2,12219,study
4,0,A350,Alpha,a,10291,2,12219,study
0,1,A350,Alpha,a,6131,2,12219,study
1,1,A150,Alpha,a,3852,2,12219,study
2,1,A250,Alpha,a,5441,2,12219,study
3,1,A50,Alpha,a,2469,2,12219,study
4,1,A450,Alpha,a,6848,2,12219,study
0,2,A150,Alpha,a,4587,2,12219,study
1,2,A350,Alpha,a,6084,2,12219,study
2,2,A450,Alpha,a,3558,2,12219,study
3,2,A50,Alpha,a,3335,2,12219,study
4,2,A250,Alpha,a,5447,2,12219,study
0,3,A450,Alpha,a,3460,2,12219,study
1,3,A50,Alpha,a,3504,2,12219,study
2,3,A250,Alpha,a,2522,2,12219,study
3,3,A150,Alpha,a,2475,2,12219,study
4,3,A350,Alpha,a,4111,2,12219,study
0,4,A150,Alpha,a,6259,2,12219,study
1,4,A450,Alpha,a,2052,2,12219,study
2,4,A250,Alpha,a,4129,2,12219,study
3,4,A350,Alpha,a,3171,2,12219,study
4,4,A50,Alpha,a,3378,2,12219,study
0,0,A150,Alpha,a,6321,2,12222,study
1,0,A50,Alpha,a,3743,2,12222,study
2,0,A250,Alpha,a,1942,2,12222,study
3,0,A350,Alpha,a,2248,2,12222,study
4,0,A450,Alpha,a,1959,2,12222,study
0,1,A450,Alpha,a,2367,2,12222,study
1,1,A150,Alpha,a,1590,2,12222,study
2,1,A250,Alpha,a,1157,2,12222,study
3,1,A350,Alpha,a,1222,2,12222,study
4,1,A50,Alpha,a,2015,2,12222,study
0,2,A450,Alpha,a,1422,2,12222,study
1,2,A350,Alpha,a,812,2,12222,study
2,2,A50,Alpha,a,1746,2,12222,study
3,2,A250,Alpha,a,1076,2,12222,study
4,2,A150,Alpha,a,840,2,12222,study
0,3,A150,Alpha,a,1726,2,12222,study
1,3,A50,Alpha,a,960,2,12222,study
2,3,A350,Alpha,a,1872,2,12222,study
3,3,A250,Alpha,a,1062,2,12222,study
4,3,A450,Alpha,a,1225,2,12222,study
0,4,A50,Alpha,a,1239,2,12222,study
1,4,A150,Alpha,a,645,2,12222,study
2,4,A450,Alpha,a,770,2,12222,study
3,4,A250,Alpha,a,859,2,12222,study
4,4,A350,Alpha,a,863,2,12222,study
0,0,A150,Alpha,a,3933,2,12225,study
1,0,A250,Alpha,a,1921,2,12225,study
2,0,A450,Alpha,a,1700,2,12225,study
3,0,A50,Alpha,a,1325,2,12225,study
4,0,A350,Alpha,a,1521,2,12225,study
0,1,A50,Alpha,a,1323,2,12225,study
1,1,A250,Alpha,a,1908,2,12225,study
2,1,A450,Alpha,a,1799,2,12225,study
3,1,A350,Alpha,a,1519,2,12225,study
4,1,A150,Alpha,a,1136,2,12225,study
0,2,A50,Alpha,a,1267,2,12225,study
1,2,A350,Alpha,a,2040,2,12225,study
2,2,A250,Alpha,a,1204,2,12225,study
3,2,A450,Alpha,a,1314,2,12225,study
4,2,A150,Alpha,a,1116,2,12225,study
0,3,A250,Alpha,a,902,2,12225,study
1,3,A350,Alpha,a,1556,2,12225,study
2,3,A450,Alpha,a,1795,2,12225,study
3,3,A50,Alpha,a,1850,2,12225,study
4,3,A150,Alpha,a,1529,2,12225,study
0,4,A50,Alpha,a,1665,2,12225,study
1,4,A250,Alpha,a,1527,2,12225,study
2,4,A350,Alpha,a,1257,2,12225,study
3,4,A450,Alpha,a,1238,2,12225,study
4,4,A150,Alpha,a,1182,2,12225,study
0,0,A350,Alpha,a,3735,2,12228,study
1,0,A150,Alpha,a,2134,2,12228,study
2,0,A450,Alpha,a,2267,2,12228,study
3,0,A250,Alpha,a,1389,2,12228,study
4,0,A50,Alpha,a,1332,2,12228,study
0,1,A250,Alpha,a,2245,2,12228,study
1,1,A50,Alpha,a,1683,2,12228,study
2,1,A450,Alpha,a,2015,2,12228,study
3,1,A350,Alpha,a,3093,2,12228,study
4,1,A150,Alpha,a,1883,2,12228,study
0,2,A350,Alpha,a,1637,2,12228,study
1,2,A150,Alpha,a,1650,2,12228,study
2,2,A450,Alpha,a,1494,2,12228,study
3,2,A50,Alpha,a,1974,2,12228,study
4,2,A250,Alpha,a,1859,2,12228,study
0,3,A250,Alpha,a,1072,2,12228,study
1,3,A50,Alpha,a,1204,2,12228,study
2,3,A150,Alpha,a,1186,2,12228,study
3,3,A450,Alpha,a,988,2,12228,study
4,3,A350,Alpha,a,985,2,12228,study
0,4,A50,Alpha,a,1233,2,12228,study
1,4,A250,Alpha,a,1926,2,12228,study
2,4,A150,Alpha,a,741,2,12228,study
3,4,A450,Alpha,a,738,2,12228,study
4,4,A350,Alpha,a,1420,2,12228,study
0,0,A150,Alpha,a,8353,2,12250,study
1,0,A350,Alpha,a,4619,2,12250,study
2,0,A450,Alpha,a,6943,2,12250,study
3,0,A50,Alpha,a,2958,2,12250,study
4,0,A250,Alpha,a,3901,2,12250,study
0,1,A250,Alpha,a,5436,2,12250,study
1,1,A150,Alpha,a,4981,2,12250,study
2,1,A50,Alpha,a,3293,2,12250,study
3,1,A450,Alpha,a,3098,2,12250,study
4,1,A350,Alpha,a,2774,2,12250,study
0,2,A150,Alpha,a,3581,2,12250,study
1,2,A50,Alpha,a,2757,2,12250,study
2,2,A450,Alpha,a,3230,2,12250,study
3,2,A350,Alpha,a,4461,2,12250,study
4,2,A250,Alpha,a,4510,2,12250,study
0,3,A350,Alpha,a,3870,2,12250,study
1,3,A250,Alpha,a,1654,2,12250,study
2,3,A450,Alpha,a,1094,2,12250,study
3,3,A150,Alpha,a,1196,2,12250,study
4,3,A50,Alpha,a,3677,2,12250,study
0,4,A50,Alpha,a,1797,2,12250,study
1,4,A150,Alpha,a,1400,2,12250,study
2,4,A350,Alpha,a,2078,2,12250,study
3,4,A450,Alpha,a,2594,2,12250,study
4,4,A250,Alpha,a,3635,2,12250,study
0,0,A50,Alpha,a,10487,2,12253,study
1,0,A250,Alpha,a,7335,2,12253,study
2,0,A150,Alpha,a,6088,2,12253,study
3,0,A450,Alpha,a,5282,2,12253,study
4,0,A350,Alpha,a,4181,2,12253,study
0,1,A50,Alpha,a,4749,2,12253,study
1,1,A150,Alpha,a,4509,2,12253,study
2,1,A250,Alpha,a,3991,2,12253,study
3,1,A350,Alpha,a,3837,2,12253,study
4,1,A450,Alpha,a,2996,2,12253,study
0,2,A250,Alpha,a,3329,2,12253,study
1,2,A450,Alpha,a,2539,2,12253,study
2,2,A50,Alpha,a,1900,2,12253,study
3,2,A350,Alpha,a,2934,2,12253,study
4,2,A150,Alpha,a,2615,2,12253,study
0,3,A150,Alpha,a,2461,2,12253,study
1,3,A350,Alpha,a,2575,2,12253,study
2,3,A450,Alpha,a,2230,2,12253,study
3,3,A50,Alpha,a,2303,2,12253,study
4,3,A250,Alpha,a,2582,2,12253,study
0,4,A50,Alpha,a,2481,2,12253,study
1,4,A350,Alpha,a,2164,2,12253,study
2,4,A450,Alpha,a,2391,2,12253,study
3,4,A250,Alpha,a,2060,2,12253,study
4,4,A150,Alpha,a,1865,2,12253,study
0,0,A350,Alpha,a,10872,2,12137,study
1,0,A450,Alpha,a,6393,2,12137,study
2,0,A50,Alpha,a,2046,2,12137,study
3,0,A250,Alpha,a,3978,2,12137,study
4,0,A150,Alpha,a,2221,2,12137,study
0,1,A150,Alpha,a,733,2,12137,study
1,1,A250,Alpha,a,2061,2,12137,study
2,1,A350,Alpha,a,4933,2,12137,study
3,1,A450,Alpha,a,1490,2,12137,study
4,1,A50,Alpha,a,861,2,12137,study
0,2,A50,Alpha,a,1393,2,12137,study
1,2,A450,Alpha,a,2953,2,12137,study
2,2,A250,Alpha,a,1354,2,12137,study
3,2,A150,Alpha,a,1965,2,12137,study
4,2,A350,Alpha,a,1704,2,12137,study
0,3,A250,Alpha,a,2231,2,12137,study
1,3,A450,Alpha,a,2547,2,12137,study
2,3,A150,Alpha,a,1540,2,12137,study
3,3,A50,Alpha,a,1375,2,12137,study
4,3,A350,Alpha,a,1639,2,12137,study
0,4,A150,Alpha,a,1181,2,12137,study
1,4,A250,Alpha,a,645,2,12137,study
2,4,A450,Alpha,a,1799,2,12137,study
3,4,A350,Alpha,a,2766,2,12137,study
4,4,A50,Alpha,a,935,2,12137,study
0,0,A150,Alpha,a,2811,2,12256,study
1,0,A350,Alpha,a,1496,2,12256,study
2,0,A250,Alpha,a,1072,2,12256,study
3,0,A50,Alpha,a,974,2,12256,study
4,0,A450,Alpha,a,1462,2,12256,study
0,1,A50,Alpha,a,938,2,12256,study
1,1,A150,Alpha,a,874,2,12256,study
2,1,A450,Alpha,a,799,2,12256,study
3,1,A250,Alpha,a,1000,2,12256,study
4,1,A350,Alpha,a,1125,2,12256,study
0,2,A450,Alpha,a,886,2,12256,study
1,2,A350,Alpha,a,669,2,12256,study
2,2,A150,Alpha,a,723,2,12256,study
3,2,A250,Alpha,a,827,2,12256,study
4,2,A50,Alpha,a,883,2,12256,study
0,3,A250,Alpha,a,1023,2,12256,study
1,3,A350,Alpha,a,974,2,12256,study
2,3,A50,Alpha,a,645,2,12256,study
3,3,A150,Alpha,a,807,2,12256,study
4,3,A450,Alpha,a,1008,2,12256,study
0,4,A350,Alpha,a,688,2,12256,study
1,4,A50,Alpha,a,901,2,12256,study
2,4,A250,Alpha,a,590,2,12256,study
3,4,A450,Alpha,a,560,2,12256,study
4,4,A150,Alpha,a,528,2,12256,study
0,0,A50,Alpha,a,3718,2,12273,study
1,0,A350,Alpha,a,2670,2,12273,study
2,0,A150,Alpha,a,3250,2,12273,study
3,0,A250,Alpha,a,3420,2,12273,study
4,0,A450,Alpha,a,3557,2,12273,study
0,1,A450,Alpha,a,1799,2,12273,study
1,1,A250,Alpha,a,2405,2,12273,study
2,1,A150,Alpha,a,1789,2,12273,study
3,1,A350,Alpha,a,1844,2,12273,study
4,1,A50,Alpha,a,1409,2,12273,study
0,2,A450,Alpha,a,2150,2,12273,study
1,2,A50,Alpha,a,2280,2,12273,study
2,2,A250,Alpha,a,1588,2,12273,study
3,2,A150,Alpha,a,2381,2,12273,study
4,2,A350,Alpha,a,1447,2,12273,study
0,3,A50,Alpha,a,1423,2,12273,study
1,3,A250,Alpha,a,1528,2,12273,study
2,3,A150,Alpha,a,1480,2,12273,study
3,3,A350,Alpha,a,1692,2,12273,study
4,3,A450,Alpha,a,1249,2,12273,study
0,4,A250,Alpha,a,1861,2,12273,study
1,4,A350,Alpha,a,861,2,12273,study
2,4,A150,Alpha,a,1129,2,12273,study
3,4,A450,Alpha,a,905,2,12273,study
4,4,A50,Alpha,a,1133,2,12273,study
0,0,A350,Alpha,a,3957,2,12276,study
1,0,A50,Alpha,a,1780,2,12276,study
2,0,A450,Alpha,a,1092,2,12276,study
3,0,A250,Alpha,a,1120,2,12276,study
4,0,A150,Alpha,a,913,2,12276,study
0,1,A350,Alpha,a,724,2,12276,study
1,1,A450,Alpha,a,670,2,12276,study
2,1,A150,Alpha,a,668,2,12276,study
3,1,A50,Alpha,a,761,2,12276,study
4,1,A250,Alpha,a,641,2,12276,study
0,2,A150,Alpha,a,648,2,12276,study
1,2,A350,Alpha,a,565,2,12276,study
2,2,A450,Alpha,a,749,2,12276,study
3,2,A50,Alpha,a,591,2,12276,study
4,2,A250,Alpha,a,495,2,12276,study
0,3,A150,Alpha,a,490,2,12276,study
1,3,A350,Alpha,a,518,2,12276,study
2,3,A450,Alpha,a,568,2,12276,study
3,3,A250,Alpha,a,681,2,12276,study
4,3,A50,Alpha,a,628,2,12276,study
0,4,A50,Alpha,a,459,2,12276,study
1,4,A250,Alpha,a,489,2,12276,study
2,4,A450,Alpha,a,588,2,12276,study
3,4,A150,Alpha,a,445,2,12276,study
4,4,A350,Alpha,a,490,2,12276,study
0,0,A350,Alpha,a,2053,2,12279,study
1,0,A250,Alpha,a,1597,2,12279,study
2,0,A450,Alpha,a,1334,2,12279,study
3,0,A50,Alpha,a,801,2,12279,study
4,0,A150,Alpha,a,1201,2,12279,study
0,1,A450,Alpha,a,1375,2,12279,study
1,1,A50,Alpha,a,1054,2,12279,study
2,1,A350,Alpha,a,1044,2,12279,study
3,1,A250,Alpha,a,1409,2,12279,study
4,1,A150,Alpha,a,792,2,12279,study
0,2,A50,Alpha,a,676,2,12279,study
1,2,A450,Alpha,a,829,2,12279,study
2,2,A250,Alpha,a,570,2,12279,study
3,2,A350,Alpha,a,572,2,12279,study
4,2,A150,Alpha,a,916,2,12279,study
0,3,A50,Alpha,a,646,2,12279,study
1,3,A250,Alpha,a,746,2,12279,study
2,3,A350,Alpha,a,612,2,12279,study
3,3,A450,Alpha,a,705,2,12279,study
4,3,A150,Alpha,a,944,2,12279,study
0,4,A50,Alpha,a,904,2,12279,study
1,4,A350,Alpha,a,988,2,12279,study
2,4,A450,Alpha,a,972,2,12279,study
3,4,A250,Alpha,a,1005,2,12279,study
4,4,A150,Alpha,a,1100,2,12279,study
0,0,A450,Alpha,a,3459,2,12281,study
1,0,A50,Alpha,a,3974,2,12281,study
2,0,A150,Alpha,a,2614,2,12281,study
3,0,A250,Alpha,a,2413,2,12281,study
4,0,A350,Alpha,a,1334,2,12281,study
0,1,A50,Alpha,a,1670,2,12281,study
1,1,A150,Alpha,a,3017,2,12281,study
2,1,A250,Alpha,a,1727,2,12281,study
3,1,A450,Alpha,a,1281,2,12281,study
4,1,A350,Alpha,a,1324,2,12281,study
0,2,A250,Alpha,a,2232,2,12281,study
1,2,A450,Alpha,a,2195,2,12281,study
2,2,A350,Alpha,a,779,2,12281,study
3,2,A50,Alpha,a,1179,2,12281,study
4,2,A150,Alpha,a,1188,2,12281,study
0,3,A250,Alpha,a,1141,2,12281,study
1,3,A350,Alpha,a,862,2,12281,study
2,3,A150,Alpha,a,2075,2,12281,study
3,3,A50,Alpha,a,1471,2,12281,study
4,3,A450,Alpha,a,899,2,12281,study
0,4,A450,Alpha,a,1317,2,12281,study
1,4,A50,Alpha,a,1217,2,12281,study
2,4,A250,Alpha,a,1128,2,12281,study
3,4,A150,Alpha,a,464,2,12281,study
4,4,A350,Alpha,a,1230,2,12281,study
0,0,A350,Alpha,a,4495,2,12284,study
1,0,A150,Alpha,a,1672,2,12284,study
2,0,A50,Alpha,a,1588,2,12284,study
3,0,A250,Alpha,a,1820,2,12284,study
4,0,A450,Alpha,a,1466,2,12284,study
0,1,A150,Alpha,a,2038,2,12284,study
1,1,A350,Alpha,a,1644,2,12284,study
2,1,A450,Alpha,a,1815,2,12284,study
3,1,A250,Alpha,a,1656,2,12284,study
4,1,A50,Alpha,a,1164,2,12284,study
0,2,A50,Alpha,a,2436,2,12284,study
1,2,A350,Alpha,a,961,2,12284,study
2,2,A150,Alpha,a,904,2,12284,study
3,2,A250,Alpha,a,517,2,12284,study
4,2,A450,Alpha,a,872,2,12284,study
0,3,A250,Alpha,a,1213,2,12284,study
1,3,A450,Alpha,a,1482,2,12284,study
2,3,A50,Alpha,a,1086,2,12284,study
3,3,A150,Alpha,a,1293,2,12284,study
4,3,A350,Alpha,a,1150,2,12284,study
0,4,A250,Alpha,a,604,2,12284,study
1,4,A450,Alpha,a,1415,2,12284,study
2,4,A50,Alpha,a,813,2,12284,study
3,4,A350,Alpha,a,1020,2,12284,study
4,4,A150,Alpha,a,723,2,12284,study
0,0,A350,Alpha,a,4146,2,12287,study
1,0,A450,Alpha,a,4077,2,12287,study
2,0,A50,Alpha,a,3522,2,12287,study
3,0,A150,Alpha,a,2171,2,12287,study
4,0,A250,Alpha,a,3956,2,12287,study
0,1,A250,Alpha,a,1946,2,12287,study
1,1,A50,Alpha,a,1309,2,12287,study
2,1,A350,Alpha,a,2169,2,12287,study
3,1,A450,Alpha,a,2497,2,12287,study
4,1,A150,Alpha,a,4826,2,12287,study
0,2,A350,Alpha,a,5658,2,12287,study
1,2,A150,Alpha,a,2595,2,12287,study
2,2,A50,Alpha,a,2058,2,12287,study
3,2,A450,Alpha,a,1680,2,12287,study
4,2,A250,Alpha,a,2475,2,12287,study
0,3,A350,Alpha,a,2032,2,12287,study
1,3,A250,Alpha,a,3565,2,12287,study
2,3,A450,Alpha,a,2763,2,12287,study
3,3,A50,Alpha,a,2454,2,12287,study
4,3,A150,Alpha,a,2090,2,12287,study
0,4,A350,Alpha,a,2454,2,12287,study
1,4,A250,Alpha,a,2201,2,12287,study
2,4,A150,Alpha,a,2128,2,12287,study
3,4,A50,Alpha,a,1994,2,12287,study
4,4,A450,Alpha,a,2355,2,12287,study
0,0,A50,Alpha,a,6571,2,12290,study
1,0,A250,Alpha,a,4799,2,12290,study
2,0,A150,Alpha,a,5773,2,12290,study
3,0,A350,Alpha,a,5718,2,12290,study
4,0,A450,Alpha,a,4987,2,12290,study
0,1,A150,Alpha,a,4884,2,12290,study
1,1,A50,Alpha,a,3183,2,12290,study
2,1,A350,Alpha,a,3989,2,12290,study
3,1,A450,Alpha,a,4534,2,12290,study
4,1,A250,Alpha,a,3949,2,12290,study
0,2,A350,Alpha,a,4335,2,12290,study
1,2,A250,Alpha,a,4431,2,12290,study
2,2,A50,Alpha,a,2972,2,12290,study
3,2,A450,Alpha,a,4340,2,12290,study
4,2,A150,Alpha,a,4364,2,12290,study
0,3,A350,Alpha,a,4909,2,12290,study
1,3,A250,Alpha,a,2655,2,12290,study
2,3,A450,Alpha,a,4570,2,12290,study
3,3,A50,Alpha,a,2745,2,12290,study
4,3,A150,Alpha,a,3022,2,12290,study
0,4,A50,Alpha,a,2465,2,12290,study
1,4,A150,Alpha,a,2228,2,12290,study
2,4,A350,Alpha,a,2114,2,12290,study
3,4,A250,Alpha,a,3292,2,12290,study
4,4,A450,Alpha,a,3297,2,12290,study
0,0,A350,Alpha,a,6984,2,12297,study
1,0,A250,Alpha,a,3912,2,12297,study
2,0,A50,Alpha,a,1867,2,12297,study
3,0,A150,Alpha,a,3590,2,12297,study
4,0,A450,Alpha,a,2441,2,12297,study
0,1,A50,Alpha,a,5036,2,12297,study
1,1,A350,Alpha,a,3007,2,12297,study
2,1,A150,Alpha,a,3126,2,12297,study
3,1,A450,Alpha,a,5679,2,12297,study
4,1,A250,Alpha,a,2229,2,12297,study
0,2,A450,Alpha,a,1888,2,12297,study
1,2,A350,Alpha,a,2115,2,12297,study
2,2,A150,Alpha,a,2740,2,12297,study
3,2,A50,Alpha,a,2734,2,12297,study
4,2,A250,Alpha,a,2111,2,12297,study
0,3,A50,Alpha,a,1900,2,12297,study
1,3,A350,Alpha,a,1840,2,12297,study
2,3,A150,Alpha,a,2051,2,12297,study
3,3,A250,Alpha,a,4154,2,12297,study
4,3,A450,Alpha,a,2974,2,12297,study
0,4,A250,Alpha,a,2636,2,12297,study
1,4,A50,Alpha,a,1611,2,12297,study
2,4,A150,Alpha,a,1409,2,12297,study
3,4,A450,Alpha,a,1593,2,12297,study
4,4,A350,Alpha,a,1432,2,12297,study
0,0,A150,Alpha,a,7124,2,12299,study
1,0,A450,Alpha,a,3586,2,12299,study
2,0,A250,Alpha,a,1836,2,12299,study
3,0,A350,Alpha,a,1868,2,12299,study
4,0,A50,Alpha,a,1307,2,12299,study
0,1,A450,Alpha,a,1898,2,12299,study
1,1,A250,Alpha,a,1116,2,12299,study
2,1,A350,Alpha,a,1055,2,12299,study
3,1,A150,Alpha,a,1668,2,12299,study
4,1,A50,Alpha,a,1168,2,12299,study
0,2,A450,Alpha,a,1241,2,12299,study
1,2,A350,Alpha,a,1149,2,12299,study
2,2,A50,Alpha,a,1071,2,12299,study
3,2,A150,Alpha,a,848,2,12299,study
4,2,A250,Alpha,a,1113,2,12299,study
0,3,A450,Alpha,a,1332,2,12299,study
1,3,A350,Alpha,a,901,2,12299,study
2,3,A250,Alpha,a,873,2,12299,study
3,3,A50,Alpha,a,845,2,12299,study
4,3,A150,Alpha,a,698,2,12299,study
0,4,A350,Alpha,a,405,2,12299,study
1,4,A250,Alpha,a,421,2,12299,study
2,4,A150,Alpha,a,428,2,12299,study
3,4,A450,Alpha,a,689,2,12299,study
4,4,A50,Alpha,a,646,2,12299,study
0,0,A350,Alpha,a,4714,2,12315,study
1,0,A450,Alpha,a,3109,2,12315,study
2,0,A150,Alpha,a,3297,2,12315,study
3,0,A50,Alpha,a,2867,2,12315,study
4,0,A250,Alpha,a,3271,2,12315,study
0,1,A150,Alpha,a,3942,2,12315,study
1,1,A250,Alpha,a,2548,2,12315,study
2,1,A350,Alpha,a,2412,2,12315,study
3,1,A50,Alpha,a,2834,2,12315,study
4,1,A450,Alpha,a,2880,2,12315,study
0,2,A250,Alpha,a,2044,2,12315,study
1,2,A50,Alpha,a,2419,2,12315,study
2,2,A150,Alpha,a,2199,2,12315,study
3,2,A350,Alpha,a,1734,2,12315,study
4,2,A450,Alpha,a,1055,2,12315,study
0,3,A350,Alpha,a,812,2,12315,study
1,3,A50,Alpha,a,1239,2,12315,study
2,3,A450,Alpha,a,1600,2,12315,study
3,3,A150,Alpha,a,1539,2,12315,study
4,3,A250,Alpha,a,753,2,12315,study
0,4,A50,Alpha,a,1930,2,12315,study
1,4,A150,Alpha,a,892,2,12315,study
2,4,A250,Alpha,a,802,2,12315,study
3,4,A350,Alpha,a,752,2,12315,study
4,4,A450,Alpha,a,849,2,12315,study
0,0,A150,Alpha,a,1937,2,12140,study
1,0,A250,Alpha,a,2109,2,12140,study
2,0,A350,Alpha,a,618,2,12140,study
3,0,A50,Alpha,a,1208,2,12140,study
4,0,A450,Alpha,a,1320,2,12140,study
0,1,A250,Alpha,a,933,2,12140,study
1,1,A50,Alpha,a,812,2,12140,study
2,1,A350,Alpha,a,1514,2,12140,study
3,1,A150,Alpha,a,1021,2,12140,study
4,1,A450,Alpha,a,877,2,12140,study
0,2,A150,Alpha,a,502,2,12140,study
1,2,A50,Alpha,a,463,2,12140,study
2,2,A250,Alpha,a,504,2,12140,study
3,2,A450,Alpha,a,788,2,12140,study
4,2,A350,Alpha,a,491,2,12140,study
0,3,A150,Alpha,a,735,2,12140,study
1,3,A250,Alpha,a,609,2,12140,study
2,3,A450,Alpha,a,614,2,12140,study
3,3,A350,Alpha,a,614,2,12140,study
4,3,A50,Alpha,a,1012,2,12140,study
0,4,A150,Alpha,a,579,2,12140,study
1,4,A250,Alpha,a,571,2,12140,study
2,4,A50,Alpha,a,581,2,12140,study
3,4,A350,Alpha,a,1340,2,12140,study
4,4,A450,Alpha,a,615,2,12140,study
0,0,A450,Alpha,a,3839,2,12318,study
1,0,A50,Alpha,a,2093,2,12318,study
2,0,A350,Alpha,a,1841,2,12318,study
3,0,A150,Alpha,a,1005,2,12318,study
4,0,A250,Alpha,a,1822,2,12318,study
0,1,A350,Alpha,a,1411,2,12318,study
1,1,A150,Alpha,a,1234,2,12318,study
2,1,A50,Alpha,a,1352,2,12318,study
3,1,A250,Alpha,a,1274,2,12318,study
4,1,A450,Alpha,a,1332,2,12318,study
0,2,A250,Alpha,a,1295,2,12318,study
1,2,A150,Alpha,a,743,2,12318,study
2,2,A50,Alpha,a,828,2,12318,study
3,2,A450,Alpha,a,790,2,12318,study
4,2,A350,Alpha,a,690,2,12318,study
0,3,A450,Alpha,a,965,2,12318,study
1,3,A150,Alpha,a,894,2,12318,study
2,3,A50,Alpha,a,921,2,12318,study
3,3,A250,Alpha,a,680,2,12318,study
4,3,A350,Alpha,a,647,2,12318,study
0,4,A350,Alpha,a,645,2,12318,study
1,4,A50,Alpha,a,746,2,12318,study
2,4,A150,Alpha,a,660,2,12318,study
3,4,A250,Alpha,a,637,2,12318,study
4,4,A450,Alpha,a,577,2,12318,study
0,0,A50,Alpha,a,3733,2,12321,study
1,0,A150,Alpha,a,2491,2,12321,study
2,0,A250,Alpha,a,1859,2,12321,study
3,0,A450,Alpha,a,5116,2,12321,study
4,0,A350,Alpha,a,1173,2,12321,study
0,1,A350,Alpha,a,2127,2,12321,study
1,1,A250,Alpha,a,1473,2,12321,study
2,1,A50,Alpha,a,1301,2,12321,study
3,1,A450,Alpha,a,2821,2,12321,study
4,1,A150,Alpha,a,1605,2,12321,study
0,2,A350,Alpha,a,2285,2,12321,study
1,2,A250,Alpha,a,832,2,12321,study
2,2,A50,Alpha,a,1070,2,12321,study
3,2,A150,Alpha,a,1387,2,12321,study
4,2,A450,Alpha,a,1083,2,12321,study
0,3,A450,Alpha,a,1133,2,12321,study
1,3,A50,Alpha,a,800,2,12321,study
2,3,A250,Alpha,a,1011,2,12321,study
3,3,A350,Alpha,a,694,2,12321,study
4,3,A150,Alpha,a,689,2,12321,study
0,4,A250,Alpha,a,1542,2,12321,study
1,4,A50,Alpha,a,862,2,12321,study
2,4,A450,Alpha,a,1149,2,12321,study
3,4,A150,Alpha,a,2173,2,12321,study
4,4,A350,Alpha,a,1006,2,12321,study
