trial,block,stimId,category,response,accuracy,rt,condition,id,phase
0,0,C1350,Gamma,Beta,False,3125,2,12143,trainPhase
1,0,A250,Alpha,Alpha,True,1443,2,12143,trainPhase
2,0,C1450,Gamma,Gamma,True,1037,2,12143,trainPhase
3,0,B650,Beta,Beta,True,1626,2,12143,trainPhase
4,0,B550,Beta,Beta,True,1479,2,12143,trainPhase
5,0,B850,Beta,Beta,True,913,2,12143,trainPhase
6,0,C1150,Gamma,Gamma,True,955,2,12143,trainPhase
7,0,B950,Beta,Beta,True,11958,2,12143,trainPhase
8,0,A50,Alpha,Alpha,True,812,2,12143,trainPhase
9,0,C1050,Gamma,Gamma,True,905,2,12143,trainPhase
10,0,C1250,Gamma,Gamma,True,824,2,12143,trainPhase
11,0,A450,Alpha,Beta,False,605,2,12143,trainPhase
12,0,A150,Alpha,Alpha,True,733,2,12143,trainPhase
13,0,B750,Beta,Beta,True,727,2,12143,trainPhase
14,0,A350,Alpha,Alpha,True,836,2,12143,trainPhase
0,1,C1050,Gamma,Gamma,True,9286,2,12143,trainPhase
1,1,A450,Alpha,Beta,False,773,2,12143,trainPhase
2,1,A150,Alpha,Alpha,True,900,2,12143,trainPhase
3,1,A50,Alpha,Alpha,True,1266,2,12143,trainPhase
4,1,A350,Alpha,Alpha,True,716,2,12143,trainPhase
5,1,B750,Beta,Beta,True,661,2,12143,trainPhase
6,1,C1250,Gamma,Gamma,True,824,2,12143,trainPhase
7,1,B950,Beta,Gamma,False,878,2,12143,trainPhase
8,1,B550,Beta,Beta,True,742,2,12143,trainPhase
9,1,B850,Beta,Gamma,False,823,2,12143,trainPhase
10,1,A250,Alpha,Alpha,True,679,2,12143,trainPhase
11,1,B650,Beta,Beta,True,937,2,12143,trainPhase
12,1,C1150,Gamma,Gamma,True,627,2,12143,trainPhase
13,1,C1450,Gamma,Gamma,True,694,2,12143,trainPhase
14,1,C1350,Gamma,Gamma,True,885,2,12143,trainPhase
0,2,A450,Alpha,Alpha,True,1222,2,12143,trainPhase
1,2,C1250,Gamma,Gamma,True,621,2,12143,trainPhase
2,2,B950,Beta,Gamma,False,635,2,12143,trainPhase
3,2,A150,Alpha,Alpha,True,704,2,12143,trainPhase
4,2,B650,Beta,Beta,True,852,2,12143,trainPhase
5,2,B850,Beta,Gamma,False,678,2,12143,trainPhase
6,2,B550,Beta,Beta,True,989,2,12143,trainPhase
7,2,A250,Alpha,Alpha,True,1125,2,12143,trainPhase
8,2,C1150,Gamma,Gamma,True,895,2,12143,trainPhase
9,2,A350,Alpha,Alpha,True,1105,2,12143,trainPhase
10,2,B750,Beta,Beta,True,5557,2,12143,trainPhase
11,2,C1350,Gamma,Gamma,True,551,2,12143,trainPhase
12,2,C1450,Gamma,Gamma,True,651,2,12143,trainPhase
13,2,C1050,Gamma,Beta,False,715,2,12143,trainPhase
14,2,A50,Alpha,Alpha,True,652,2,12143,trainPhase
0,3,B550,Beta,Beta,True,562,2,12143,trainPhase
1,3,A250,Alpha,Alpha,True,709,2,12143,trainPhase
2,3,A150,Alpha,Alpha,True,592,2,12143,trainPhase
3,3,C1050,Gamma,Gamma,True,696,2,12143,trainPhase
4,3,A450,Alpha,Beta,False,627,2,12143,trainPhase
5,3,C1250,Gamma,Gamma,True,854,2,12143,trainPhase
6,3,C1450,Gamma,Gamma,True,904,2,12143,trainPhase
7,3,C1350,Gamma,Gamma,True,941,2,12143,trainPhase
8,3,B650,Beta,Beta,True,759,2,12143,trainPhase
9,3,B850,Beta,Beta,True,743,2,12143,trainPhase
10,3,B750,Beta,Beta,True,585,2,12143,trainPhase
11,3,C1150,Gamma,Gamma,True,1022,2,12143,trainPhase
12,3,A50,Alpha,Alpha,True,666,2,12143,trainPhase
13,3,B950,Beta,Beta,True,644,2,12143,trainPhase
14,3,A350,Alpha,Alpha,True,809,2,12143,trainPhase
0,4,B850,Beta,Beta,True,661,2,12143,trainPhase
1,4,C1450,Gamma,Gamma,True,1054,2,12143,trainPhase
2,4,C1250,Gamma,Gamma,True,671,2,12143,trainPhase
3,4,C1150,Gamma,Gamma,True,661,2,12143,trainPhase
4,4,B650,Beta,Beta,True,672,2,12143,trainPhase
5,4,B950,Beta,Beta,True,694,2,12143,trainPhase
6,4,A450,Alpha,Beta,False,556,2,12143,trainPhase
7,4,A150,Alpha,Alpha,True,414,2,12143,trainPhase
8,4,C1050,Gamma,Alpha,False,466,2,12143,trainPhase
9,4,A350,Alpha,Alpha,True,301,2,12143,trainPhase
10,4,A250,Alpha,Alpha,True,542,2,12143,trainPhase
11,4,B550,Beta,Beta,True,604,2,12143,trainPhase
12,4,A50,Alpha,Alpha,True,886,2,12143,trainPhase
13,4,C1350,Gamma,Alpha,False,205,2,12143,trainPhase
14,4,B750,Beta,Gamma,False,578,2,12143,trainPhase
0,0,B750,Beta,Alpha,False,4267,2,12160,trainPhase
1,0,A350,Alpha,Alpha,True,1087,2,12160,trainPhase
2,0,A50,Alpha,Alpha,True,1075,2,12160,trainPhase
3,0,C1150,Gamma,Gamma,True,2598,2,12160,trainPhase
4,0,B650,Beta,Beta,True,2511,2,12160,trainPhase
5,0,B550,Beta,Alpha,False,1117,2,12160,trainPhase
6,0,C1050,Gamma,Gamma,True,1502,2,12160,trainPhase
7,0,B950,Beta,Gamma,False,1102,2,12160,trainPhase
8,0,C1250,Gamma,Gamma,True,1200,2,12160,trainPhase
9,0,B850,Beta,Beta,True,780,2,12160,trainPhase
10,0,C1450,Gamma,Gamma,True,1175,2,12160,trainPhase
11,0,A150,Alpha,Alpha,True,950,2,12160,trainPhase
12,0,A450,Alpha,Alpha,True,1038,2,12160,trainPhase
13,0,C1350,Gamma,Gamma,True,1012,2,12160,trainPhase
14,0,A250,Alpha,Alpha,True,1038,2,12160,trainPhase
0,1,B750,Beta,Alpha,False,1533,2,12160,trainPhase
1,1,C1150,Gamma,Gamma,True,1278,2,12160,trainPhase
2,1,A150,Alpha,Alpha,True,1042,2,12160,trainPhase
3,1,C1350,Gamma,Gamma,True,936,2,12160,trainPhase
4,1,B950,Beta,Gamma,False,1168,2,12160,trainPhase
5,1,C1050,Gamma,Gamma,True,973,2,12160,trainPhase
6,1,C1250,Gamma,Gamma,True,909,2,12160,trainPhase
7,1,A250,Alpha,Alpha,True,925,2,12160,trainPhase
8,1,A50,Alpha,Alpha,True,1033,2,12160,trainPhase
9,1,C1450,Gamma,Gamma,True,870,2,12160,trainPhase
10,1,B550,Beta,Alpha,False,1203,2,12160,trainPhase
11,1,A450,Alpha,Alpha,True,925,2,12160,trainPhase
12,1,A350,Alpha,Alpha,True,841,2,12160,trainPhase
13,1,B650,Beta,Beta,True,750,2,12160,trainPhase
14,1,B850,Beta,Beta,True,927,2,12160,trainPhase
0,2,C1450,Gamma,Gamma,True,706,2,12160,trainPhase
1,2,B950,Beta,Gamma,False,1305,2,12160,trainPhase
2,2,A150,Alpha,Alpha,True,1798,2,12160,trainPhase
3,2,B650,Beta,Alpha,False,1277,2,12160,trainPhase
4,2,A50,Alpha,Alpha,True,865,2,12160,trainPhase
5,2,A350,Alpha,Alpha,True,989,2,12160,trainPhase
6,2,A250,Alpha,Alpha,True,790,2,12160,trainPhase
7,2,B750,Beta,Beta,True,871,2,12160,trainPhase
8,2,B550,Beta,Alpha,False,3113,2,12160,trainPhase
9,2,A450,Alpha,Beta,False,1262,2,12160,trainPhase
10,2,C1150,Gamma,Gamma,True,1220,2,12160,trainPhase
11,2,C1350,Gamma,Gamma,True,726,2,12160,trainPhase
12,2,C1050,Gamma,Gamma,True,1734,2,12160,trainPhase
13,2,B850,Beta,Beta,True,1187,2,12160,trainPhase
14,2,C1250,Gamma,Gamma,True,797,2,12160,trainPhase
0,3,C1250,Gamma,Gamma,True,781,2,12160,trainPhase
1,3,B850,Beta,Beta,True,1046,2,12160,trainPhase
2,3,B950,Beta,Beta,True,885,2,12160,trainPhase
3,3,C1050,Gamma,Gamma,True,1021,2,12160,trainPhase
4,3,A150,Alpha,Alpha,True,877,2,12160,trainPhase
5,3,A350,Alpha,Alpha,True,805,2,12160,trainPhase
6,3,C1350,Gamma,Gamma,True,848,2,12160,trainPhase
7,3,A50,Alpha,Alpha,True,894,2,12160,trainPhase
8,3,B750,Beta,Beta,True,1999,2,12160,trainPhase
9,3,C1150,Gamma,Gamma,True,1062,2,12160,trainPhase
10,3,B650,Beta,Beta,True,701,2,12160,trainPhase
11,3,A250,Alpha,Alpha,True,1293,2,12160,trainPhase
12,3,A450,Alpha,Alpha,True,1883,2,12160,trainPhase
13,3,B550,Beta,Beta,True,1355,2,12160,trainPhase
14,3,C1450,Gamma,Gamma,True,709,2,12160,trainPhase
0,4,A150,Alpha,Alpha,True,853,2,12160,trainPhase
1,4,B850,Beta,Gamma,False,1125,2,12160,trainPhase
2,4,B950,Beta,Gamma,False,1128,2,12160,trainPhase
3,4,A250,Alpha,Alpha,True,838,2,12160,trainPhase
4,4,B650,Beta,Beta,True,1667,2,12160,trainPhase
5,4,A350,Alpha,Alpha,True,827,2,12160,trainPhase
6,4,C1050,Gamma,Gamma,True,962,2,12160,trainPhase
7,4,C1250,Gamma,Gamma,True,756,2,12160,trainPhase
8,4,B550,Beta,Beta,True,830,2,12160,trainPhase
9,4,C1150,Gamma,Gamma,True,1118,2,12160,trainPhase
10,4,C1450,Gamma,Gamma,True,638,2,12160,trainPhase
11,4,C1350,Gamma,Gamma,True,703,2,12160,trainPhase
12,4,A450,Alpha,Alpha,True,965,2,12160,trainPhase
13,4,A50,Alpha,Alpha,True,2317,2,12160,trainPhase
14,4,B750,Beta,Beta,True,1038,2,12160,trainPhase
0,0,A350,Alpha,Alpha,True,5446,2,12163,trainPhase
1,0,A250,Alpha,Beta,False,3031,2,12163,trainPhase
2,0,A450,Alpha,Alpha,True,1011,2,12163,trainPhase
3,0,C1350,Gamma,Gamma,True,3378,2,12163,trainPhase
4,0,C1250,Gamma,Gamma,True,1918,2,12163,trainPhase
5,0,A50,Alpha,Alpha,True,1204,2,12163,trainPhase
6,0,B550,Beta,Beta,True,1080,2,12163,trainPhase
7,0,B650,Beta,Beta,True,941,2,12163,trainPhase
8,0,C1150,Gamma,Gamma,True,870,2,12163,trainPhase
9,0,B950,Beta,Gamma,False,590,2,12163,trainPhase
10,0,A150,Alpha,Alpha,True,957,2,12163,trainPhase
11,0,C1450,Gamma,Gamma,True,845,2,12163,trainPhase
12,0,B850,Beta,Gamma,False,1461,2,12163,trainPhase
13,0,B750,Beta,Beta,True,893,2,12163,trainPhase
14,0,C1050,Gamma,Gamma,True,1798,2,12163,trainPhase
0,1,A450,Alpha,Beta,False,1306,2,12163,trainPhase
1,1,A50,Alpha,Alpha,True,1133,2,12163,trainPhase
2,1,C1250,Gamma,Gamma,True,1131,2,12163,trainPhase
3,1,A250,Alpha,Alpha,True,1244,2,12163,trainPhase
4,1,B650,Beta,Beta,True,2099,2,12163,trainPhase
5,1,B550,Beta,Alpha,False,2546,2,12163,trainPhase
6,1,C1150,Gamma,Gamma,True,917,2,12163,trainPhase
7,1,C1350,Gamma,Gamma,True,741,2,12163,trainPhase
8,1,C1450,Gamma,Gamma,True,917,2,12163,trainPhase
9,1,A350,Alpha,Alpha,True,1262,2,12163,trainPhase
10,1,B750,Beta,Beta,True,763,2,12163,trainPhase
11,1,A150,Alpha,Alpha,True,782,2,12163,trainPhase
12,1,C1050,Gamma,Gamma,True,1506,2,12163,trainPhase
13,1,B850,Beta,Gamma,False,1333,2,12163,trainPhase
14,1,B950,Beta,Gamma,False,1129,2,12163,trainPhase
0,2,B750,Beta,Beta,True,934,2,12163,trainPhase
1,2,B550,Beta,Beta,True,1501,2,12163,trainPhase
2,2,A50,Alpha,Alpha,True,826,2,12163,trainPhase
3,2,B850,Beta,Beta,True,922,2,12163,trainPhase
4,2,C1350,Gamma,Gamma,True,781,2,12163,trainPhase
5,2,A450,Alpha,Beta,False,1941,2,12163,trainPhase
6,2,A250,Alpha,Alpha,True,741,2,12163,trainPhase
7,2,B950,Beta,Gamma,False,2927,2,12163,trainPhase
8,2,C1450,Gamma,Gamma,True,790,2,12163,trainPhase
9,2,C1250,Gamma,Gamma,True,965,2,12163,trainPhase
10,2,C1150,Gamma,Gamma,True,1029,2,12163,trainPhase
11,2,A150,Alpha,Alpha,True,1439,2,12163,trainPhase
12,2,B650,Beta,Beta,True,1045,2,12163,trainPhase
13,2,A350,Alpha,Alpha,True,908,2,12163,trainPhase
14,2,C1050,Gamma,Beta,False,854,2,12163,trainPhase
0,3,A450,Alpha,Alpha,True,2064,2,12163,trainPhase
1,3,A350,Alpha,Alpha,True,758,2,12163,trainPhase
2,3,C1150,Gamma,Gamma,True,1110,2,12163,trainPhase
3,3,C1050,Gamma,Gamma,True,709,2,12163,trainPhase
4,3,C1450,Gamma,Gamma,True,699,2,12163,trainPhase
5,3,C1250,Gamma,Gamma,True,902,2,12163,trainPhase
6,3,C1350,Gamma,Gamma,True,765,2,12163,trainPhase
7,3,A50,Alpha,Alpha,True,1182,2,12163,trainPhase
8,3,A250,Alpha,Alpha,True,1061,2,12163,trainPhase
9,3,B850,Beta,Beta,True,1158,2,12163,trainPhase
10,3,B550,Beta,Beta,True,1025,2,12163,trainPhase
11,3,A150,Alpha,Alpha,True,734,2,12163,trainPhase
12,3,B750,Beta,Beta,True,1278,2,12163,trainPhase
13,3,B650,Beta,Beta,True,838,2,12163,trainPhase
14,3,B950,Beta,Beta,True,3211,2,12163,trainPhase
0,4,C1350,Gamma,Gamma,True,757,2,12163,trainPhase
1,4,C1150,Gamma,Gamma,True,1141,2,12163,trainPhase
2,4,C1050,Gamma,Gamma,True,887,2,12163,trainPhase
3,4,B850,Beta,Beta,True,1344,2,12163,trainPhase
4,4,B950,Beta,Beta,True,862,2,12163,trainPhase
5,4,A350,Alpha,Alpha,True,773,2,12163,trainPhase
6,4,A250,Alpha,Alpha,True,982,2,12163,trainPhase
7,4,A50,Alpha,Alpha,True,1045,2,12163,trainPhase
8,4,C1250,Gamma,Gamma,True,942,2,12163,trainPhase
9,4,A450,Alpha,Alpha,True,750,2,12163,trainPhase
10,4,A150,Alpha,Alpha,True,797,2,12163,trainPhase
11,4,B750,Beta,Beta,True,1349,2,12163,trainPhase
12,4,B550,Beta,Alpha,False,1373,2,12163,trainPhase
13,4,C1450,Gamma,Gamma,True,845,2,12163,trainPhase
14,4,B650,Beta,Beta,True,1709,2,12163,trainPhase
0,0,B750,Beta,Beta,True,5100,2,12185,trainPhase
1,0,C1350,Gamma,Gamma,True,1445,2,12185,trainPhase
2,0,A350,Alpha,Alpha,True,1728,2,12185,trainPhase
3,0,B650,Beta,Beta,True,1381,2,12185,trainPhase
4,0,C1150,Gamma,Gamma,True,773,2,12185,trainPhase
5,0,A250,Alpha,Alpha,True,1333,2,12185,trainPhase
6,0,C1250,Gamma,Gamma,True,1405,2,12185,trainPhase
7,0,B850,Beta,Beta,True,841,2,12185,trainPhase
8,0,A50,Alpha,Alpha,True,1482,2,12185,trainPhase
9,0,C1450,Gamma,Gamma,True,995,2,12185,trainPhase
10,0,A450,Alpha,Beta,False,1825,2,12185,trainPhase
11,0,A150,Alpha,Alpha,True,1293,2,12185,trainPhase
12,0,B550,Beta,Alpha,False,1046,2,12185,trainPhase
13,0,B950,Beta,Gamma,False,812,2,12185,trainPhase
14,0,C1050,Gamma,Gamma,True,1181,2,12185,trainPhase
0,1,A450,Alpha,Beta,False,1008,2,12185,trainPhase
1,1,A150,Alpha,Alpha,True,816,2,12185,trainPhase
2,1,B750,Beta,Beta,True,1221,2,12185,trainPhase
3,1,C1450,Gamma,Gamma,True,1487,2,12185,trainPhase
4,1,A50,Alpha,Alpha,True,974,2,12185,trainPhase
5,1,A250,Alpha,Alpha,True,1038,2,12185,trainPhase
6,1,B550,Beta,Beta,True,1324,2,12185,trainPhase
7,1,C1050,Gamma,Gamma,True,1121,2,12185,trainPhase
8,1,A350,Alpha,Alpha,True,1269,2,12185,trainPhase
9,1,B950,Beta,Gamma,False,1536,2,12185,trainPhase
10,1,C1250,Gamma,Gamma,True,965,2,12185,trainPhase
11,1,B650,Beta,Beta,True,813,2,12185,trainPhase
12,1,B850,Beta,Beta,True,917,2,12185,trainPhase
13,1,C1350,Gamma,Gamma,True,870,2,12185,trainPhase
14,1,C1150,Gamma,Gamma,True,774,2,12185,trainPhase
0,2,B850,Beta,Gamma,False,1350,2,12185,trainPhase
1,2,C1350,Gamma,Gamma,True,1374,2,12185,trainPhase
2,2,C1450,Gamma,Gamma,True,940,2,12185,trainPhase
3,2,A450,Alpha,Beta,False,798,2,12185,trainPhase
4,2,B550,Beta,Alpha,False,1125,2,12185,trainPhase
5,2,B750,Beta,Beta,True,1293,2,12185,trainPhase
6,2,C1050,Gamma,Gamma,True,1006,2,12185,trainPhase
7,2,B950,Beta,Gamma,False,1102,2,12185,trainPhase
8,2,C1250,Gamma,Gamma,True,966,2,12185,trainPhase
9,2,A250,Alpha,Alpha,True,989,2,12185,trainPhase
10,2,A150,Alpha,Alpha,True,1126,2,12185,trainPhase
11,2,C1150,Gamma,Gamma,True,2278,2,12185,trainPhase
12,2,A350,Alpha,Alpha,True,1261,2,12185,trainPhase
13,2,B650,Beta,Beta,True,882,2,12185,trainPhase
14,2,A50,Alpha,Alpha,True,1094,2,12185,trainPhase
0,3,B550,Beta,Beta,True,1141,2,12185,trainPhase
1,3,A50,Alpha,Alpha,True,949,2,12185,trainPhase
2,3,C1250,Gamma,Gamma,True,906,2,12185,trainPhase
3,3,C1050,Gamma,Gamma,True,1423,2,12185,trainPhase
4,3,B750,Beta,Beta,True,855,2,12185,trainPhase
5,3,A350,Alpha,Beta,False,2042,2,12185,trainPhase
6,3,C1450,Gamma,Gamma,True,956,2,12185,trainPhase
7,3,B950,Beta,Gamma,False,950,2,12185,trainPhase
8,3,C1350,Gamma,Gamma,True,868,2,12185,trainPhase
9,3,B850,Beta,Beta,True,1243,2,12185,trainPhase
10,3,A450,Alpha,Alpha,True,1343,2,12185,trainPhase
11,3,A150,Alpha,Alpha,True,1059,2,12185,trainPhase
12,3,A250,Alpha,Alpha,True,1231,2,12185,trainPhase
13,3,C1150,Gamma,Gamma,True,1326,2,12185,trainPhase
14,3,B650,Beta,Beta,True,1339,2,12185,trainPhase
0,4,A150,Alpha,Alpha,True,830,2,12185,trainPhase
1,4,C1150,Gamma,Gamma,True,1453,2,12185,trainPhase
2,4,B950,Beta,Gamma,False,1626,2,12185,trainPhase
3,4,C1350,Gamma,Gamma,True,1006,2,12185,trainPhase
4,4,C1450,Gamma,Gamma,True,1077,2,12185,trainPhase
5,4,B750,Beta,Beta,True,1166,2,12185,trainPhase
6,4,C1050,Gamma,Gamma,True,1183,2,12185,trainPhase
7,4,A250,Alpha,Alpha,True,1014,2,12185,trainPhase
8,4,A450,Alpha,Alpha,True,1613,2,12185,trainPhase
9,4,A50,Alpha,Alpha,True,989,2,12185,trainPhase
10,4,B650,Beta,Alpha,False,1590,2,12185,trainPhase
11,4,B850,Beta,Beta,True,773,2,12185,trainPhase
12,4,B550,Beta,Beta,True,868,2,12185,trainPhase
13,4,A350,Alpha,Beta,False,1165,2,12185,trainPhase
14,4,C1250,Gamma,Gamma,True,1307,2,12185,trainPhase
0,0,C1250,Gamma,Alpha,False,5718,2,12188,trainPhase
1,0,C1450,Gamma,Gamma,True,2171,2,12188,trainPhase
2,0,B950,Beta,Beta,True,1835,2,12188,trainPhase
3,0,B650,Beta,Beta,True,3643,2,12188,trainPhase
4,0,C1350,Gamma,Gamma,True,1014,2,12188,trainPhase
5,0,A250,Alpha,Alpha,True,1205,2,12188,trainPhase
6,0,B850,Beta,Gamma,False,3346,2,12188,trainPhase
7,0,B550,Beta,Beta,True,1385,2,12188,trainPhase
8,0,A50,Alpha,Alpha,True,1478,2,12188,trainPhase
9,0,A450,Alpha,Alpha,True,3582,2,12188,trainPhase
10,0,C1050,Gamma,Gamma,True,4241,2,12188,trainPhase
11,0,C1150,Gamma,Gamma,True,1516,2,12188,trainPhase
12,0,A350,Alpha,Alpha,True,1460,2,12188,trainPhase
13,0,A150,Alpha,Alpha,True,2156,2,12188,trainPhase
14,0,B750,Beta,Beta,True,1528,2,12188,trainPhase
0,1,A50,Alpha,Alpha,True,1028,2,12188,trainPhase
1,1,A150,Alpha,Alpha,True,1461,2,12188,trainPhase
2,1,A350,Alpha,Alpha,True,1316,2,12188,trainPhase
3,1,B950,Beta,Beta,True,1260,2,12188,trainPhase
4,1,B750,Beta,Beta,True,965,2,12188,trainPhase
5,1,B850,Beta,Beta,True,935,2,12188,trainPhase
6,1,C1450,Gamma,Gamma,True,1069,2,12188,trainPhase
7,1,A250,Alpha,Alpha,True,1356,2,12188,trainPhase
8,1,C1350,Gamma,Gamma,True,1194,2,12188,trainPhase
9,1,C1050,Gamma,Gamma,True,2725,2,12188,trainPhase
10,1,B550,Beta,Beta,True,704,2,12188,trainPhase
11,1,C1150,Gamma,Gamma,True,2033,2,12188,trainPhase
12,1,A450,Alpha,Alpha,True,2563,2,12188,trainPhase
13,1,C1250,Gamma,Gamma,True,1090,2,12188,trainPhase
14,1,B650,Beta,Beta,True,821,2,12188,trainPhase
0,2,C1250,Gamma,Gamma,True,1282,2,12188,trainPhase
1,2,B550,Beta,Beta,True,2546,2,12188,trainPhase
2,2,B950,Beta,Beta,True,1905,2,12188,trainPhase
3,2,A50,Alpha,Alpha,True,1376,2,12188,trainPhase
4,2,B750,Beta,Beta,True,1284,2,12188,trainPhase
5,2,A450,Alpha,Beta,False,833,2,12188,trainPhase
6,2,A350,Alpha,Alpha,True,1096,2,12188,trainPhase
7,2,A250,Alpha,Alpha,True,1091,2,12188,trainPhase
8,2,C1150,Gamma,Gamma,True,3750,2,12188,trainPhase
9,2,A150,Alpha,Alpha,True,1208,2,12188,trainPhase
10,2,B650,Beta,Beta,True,885,2,12188,trainPhase
11,2,C1050,Gamma,Beta,False,1557,2,12188,trainPhase
12,2,C1450,Gamma,Gamma,True,1134,2,12188,trainPhase
13,2,B850,Beta,Beta,True,2504,2,12188,trainPhase
14,2,C1350,Gamma,Gamma,True,1244,2,12188,trainPhase
0,3,B750,Beta,Beta,True,2293,2,12188,trainPhase
1,3,B650,Beta,Beta,True,1980,2,12188,trainPhase
2,3,B850,Beta,Beta,True,1064,2,12188,trainPhase
3,3,C1150,Gamma,Gamma,True,921,2,12188,trainPhase
4,3,A250,Alpha,Alpha,True,1076,2,12188,trainPhase
5,3,C1050,Gamma,Gamma,True,1799,2,12188,trainPhase
6,3,B550,Beta,Beta,True,771,2,12188,trainPhase
7,3,A350,Alpha,Alpha,True,2239,2,12188,trainPhase
8,3,C1250,Gamma,Gamma,True,985,2,12188,trainPhase
9,3,C1350,Gamma,Gamma,True,1067,2,12188,trainPhase
10,3,A150,Alpha,Alpha,True,1259,2,12188,trainPhase
11,3,C1450,Gamma,Gamma,True,1309,2,12188,trainPhase
12,3,B950,Beta,Beta,True,1781,2,12188,trainPhase
13,3,A50,Alpha,Alpha,True,1069,2,12188,trainPhase
14,3,A450,Alpha,Alpha,True,1308,2,12188,trainPhase
0,4,A150,Alpha,Alpha,True,950,2,12188,trainPhase
1,4,B950,Beta,Beta,True,1574,2,12188,trainPhase
2,4,A50,Alpha,Alpha,True,1140,2,12188,trainPhase
3,4,C1150,Gamma,Gamma,True,1245,2,12188,trainPhase
4,4,C1050,Gamma,Beta,False,1241,2,12188,trainPhase
5,4,C1350,Gamma,Gamma,True,966,2,12188,trainPhase
6,4,A350,Alpha,Alpha,True,1116,2,12188,trainPhase
7,4,C1250,Gamma,Gamma,True,1065,2,12188,trainPhase
8,4,A250,Alpha,Alpha,True,958,2,12188,trainPhase
9,4,C1450,Gamma,Gamma,True,888,2,12188,trainPhase
10,4,B650,Beta,Beta,True,1055,2,12188,trainPhase
11,4,A450,Alpha,Alpha,True,1228,2,12188,trainPhase
12,4,B750,Beta,Beta,True,901,2,12188,trainPhase
13,4,B550,Beta,Beta,True,916,2,12188,trainPhase
14,4,B850,Beta,Beta,True,1066,2,12188,trainPhase
0,0,A150,Alpha,Alpha,True,3915,2,12191,trainPhase
1,0,B550,Beta,Alpha,False,1668,2,12191,trainPhase
2,0,C1350,Gamma,Gamma,True,1154,2,12191,trainPhase
3,0,C1250,Gamma,Gamma,True,1022,2,12191,trainPhase
4,0,B750,Beta,Beta,True,988,2,12191,trainPhase
5,0,A350,Alpha,Alpha,True,645,2,12191,trainPhase
6,0,C1050,Gamma,Gamma,True,910,2,12191,trainPhase
7,0,A50,Alpha,Alpha,True,782,2,12191,trainPhase
8,0,A250,Alpha,Beta,False,613,2,12191,trainPhase
9,0,B850,Beta,Gamma,False,950,2,12191,trainPhase
10,0,B650,Beta,Beta,True,1339,2,12191,trainPhase
11,0,C1150,Gamma,Gamma,True,798,2,12191,trainPhase
12,0,A450,Alpha,Beta,False,767,2,12191,trainPhase
13,0,B950,Beta,Gamma,False,2673,2,12191,trainPhase
14,0,C1450,Gamma,Gamma,True,1334,2,12191,trainPhase
0,1,A350,Alpha,Beta,False,781,2,12191,trainPhase
1,1,C1250,Gamma,Beta,False,1213,2,12191,trainPhase
2,1,B750,Beta,Beta,True,2288,2,12191,trainPhase
3,1,C1050,Gamma,Beta,False,2262,2,12191,trainPhase
4,1,C1450,Gamma,Gamma,True,1556,2,12191,trainPhase
5,1,A50,Alpha,Alpha,True,986,2,12191,trainPhase
6,1,A450,Alpha,Alpha,True,945,2,12191,trainPhase
7,1,C1350,Gamma,Beta,False,1318,2,12191,trainPhase
8,1,C1150,Gamma,Gamma,True,893,2,12191,trainPhase
9,1,B650,Beta,Beta,True,642,2,12191,trainPhase
10,1,B550,Beta,Beta,True,765,2,12191,trainPhase
11,1,B950,Beta,Beta,True,1509,2,12191,trainPhase
12,1,A250,Alpha,Alpha,True,820,2,12191,trainPhase
13,1,B850,Beta,Beta,True,981,2,12191,trainPhase
14,1,A150,Alpha,Alpha,True,877,2,12191,trainPhase
0,2,C1250,Gamma,Gamma,True,1180,2,12191,trainPhase
1,2,B550,Beta,Beta,True,637,2,12191,trainPhase
2,2,C1450,Gamma,Gamma,True,989,2,12191,trainPhase
3,2,C1050,Gamma,Gamma,True,2159,2,12191,trainPhase
4,2,C1150,Gamma,Gamma,True,944,2,12191,trainPhase
5,2,B950,Beta,Beta,True,734,2,12191,trainPhase
6,2,A150,Alpha,Alpha,True,781,2,12191,trainPhase
7,2,A350,Alpha,Beta,False,765,2,12191,trainPhase
8,2,B750,Beta,Beta,True,831,2,12191,trainPhase
9,2,A50,Alpha,Alpha,True,862,2,12191,trainPhase
10,2,A250,Alpha,Alpha,True,1598,2,12191,trainPhase
11,2,C1350,Gamma,Gamma,True,11482,2,12191,trainPhase
12,2,A450,Alpha,Beta,False,1198,2,12191,trainPhase
13,2,B650,Beta,Beta,True,2194,2,12191,trainPhase
14,2,B850,Beta,Beta,True,3917,2,12191,trainPhase
0,3,C1350,Gamma,Gamma,True,933,2,12191,trainPhase
1,3,B650,Beta,Beta,True,982,2,12191,trainPhase
2,3,B850,Beta,Gamma,False,2006,2,12191,trainPhase
3,3,A50,Alpha,Alpha,True,1014,2,12191,trainPhase
4,3,B750,Beta,Beta,True,749,2,12191,trainPhase
5,3,B950,Beta,Gamma,False,1525,2,12191,trainPhase
6,3,C1050,Gamma,Gamma,True,662,2,12191,trainPhase
7,3,A250,Alpha,Beta,False,629,2,12191,trainPhase
8,3,A350,Alpha,Alpha,True,1133,2,12191,trainPhase
9,3,C1150,Gamma,Gamma,True,1029,2,12191,trainPhase
10,3,C1250,Gamma,Gamma,True,1253,2,12191,trainPhase
11,3,C1450,Gamma,Gamma,True,981,2,12191,trainPhase
12,3,B550,Beta,Beta,True,1118,2,12191,trainPhase
13,3,A450,Alpha,Alpha,True,1144,2,12191,trainPhase
14,3,A150,Alpha,Alpha,True,1133,2,12191,trainPhase
0,4,A150,Alpha,Alpha,True,717,2,12191,trainPhase
1,4,A450,Alpha,Beta,False,742,2,12191,trainPhase
2,4,B950,Beta,Beta,True,1473,2,12191,trainPhase
3,4,A350,Alpha,Alpha,True,1077,2,12191,trainPhase
4,4,B850,Beta,Beta,True,934,2,12191,trainPhase
5,4,B750,Beta,Beta,True,670,2,12191,trainPhase
6,4,C1250,Gamma,Gamma,True,957,2,12191,trainPhase
7,4,B550,Beta,Beta,True,941,2,12191,trainPhase
8,4,B650,Beta,Beta,True,1590,2,12191,trainPhase
9,4,C1350,Gamma,Gamma,True,1054,2,12191,trainPhase
10,4,A250,Alpha,Alpha,True,748,2,12191,trainPhase
11,4,C1150,Gamma,Gamma,True,812,2,12191,trainPhase
12,4,C1450,Gamma,Gamma,True,974,2,12191,trainPhase
13,4,C1050,Gamma,Beta,False,1734,2,12191,trainPhase
14,4,A50,Alpha,Alpha,True,758,2,12191,trainPhase
0,0,C1350,Gamma,Alpha,False,3331,2,12192,trainPhase
1,0,C1150,Gamma,Alpha,False,5230,2,12192,trainPhase
2,0,B950,Beta,Gamma,False,3444,2,12192,trainPhase
3,0,A150,Alpha,Alpha,True,5121,2,12192,trainPhase
4,0,B850,Beta,Beta,True,2884,2,12192,trainPhase
5,0,A350,Alpha,Beta,False,3916,2,12192,trainPhase
6,0,A50,Alpha,Alpha,True,1393,2,12192,trainPhase
7,0,B550,Beta,Beta,True,3205,2,12192,trainPhase
8,0,A450,Alpha,Alpha,True,2287,2,12192,trainPhase
9,0,C1050,Gamma,Gamma,True,1712,2,12192,trainPhase
10,0,B750,Beta,Gamma,False,4843,2,12192,trainPhase
11,0,A250,Alpha,Alpha,True,2987,2,12192,trainPhase
12,0,B650,Beta,Beta,True,3108,2,12192,trainPhase
13,0,C1450,Gamma,Gamma,True,1193,2,12192,trainPhase
14,0,C1250,Gamma,Gamma,True,1104,2,12192,trainPhase
0,1,C1150,Gamma,Gamma,True,2150,2,12192,trainPhase
1,1,B550,Beta,Beta,True,1098,2,12192,trainPhase
2,1,B850,Beta,Beta,True,1634,2,12192,trainPhase
3,1,A50,Alpha,Alpha,True,1256,2,12192,trainPhase
4,1,C1350,Gamma,Gamma,True,3261,2,12192,trainPhase
5,1,B950,Beta,Gamma,False,3462,2,12192,trainPhase
6,1,B650,Beta,Beta,True,2701,2,12192,trainPhase
7,1,A150,Alpha,Alpha,True,1293,2,12192,trainPhase
8,1,B750,Beta,Beta,True,1028,2,12192,trainPhase
9,1,C1050,Gamma,Gamma,True,2706,2,12192,trainPhase
10,1,C1250,Gamma,Gamma,True,874,2,12192,trainPhase
11,1,A250,Alpha,Alpha,True,3381,2,12192,trainPhase
12,1,A450,Alpha,Beta,False,1390,2,12192,trainPhase
13,1,A350,Alpha,Alpha,True,2729,2,12192,trainPhase
14,1,C1450,Gamma,Gamma,True,2649,2,12192,trainPhase
0,2,A150,Alpha,Alpha,True,2671,2,12192,trainPhase
1,2,C1350,Gamma,Gamma,True,4373,2,12192,trainPhase
2,2,A450,Alpha,Beta,False,9892,2,12192,trainPhase
3,2,C1250,Gamma,Gamma,True,2825,2,12192,trainPhase
4,2,C1450,Gamma,Gamma,True,1622,2,12192,trainPhase
5,2,A50,Alpha,Alpha,True,1302,2,12192,trainPhase
6,2,A250,Alpha,Alpha,True,933,2,12192,trainPhase
7,2,C1050,Gamma,Beta,False,966,2,12192,trainPhase
8,2,B750,Beta,Beta,True,941,2,12192,trainPhase
9,2,B650,Beta,Beta,True,1006,2,12192,trainPhase
10,2,A350,Alpha,Alpha,True,2174,2,12192,trainPhase
11,2,C1150,Gamma,Gamma,True,1886,2,12192,trainPhase
12,2,B950,Beta,Beta,True,3774,2,12192,trainPhase
13,2,B550,Beta,Beta,True,1954,2,12192,trainPhase
14,2,B850,Beta,Beta,True,4277,2,12192,trainPhase
0,3,A350,Alpha,Alpha,True,1536,2,12192,trainPhase
1,3,C1450,Gamma,Gamma,True,1358,2,12192,trainPhase
2,3,B850,Beta,Beta,True,7426,2,12192,trainPhase
3,3,B950,Beta,Beta,True,1141,2,12192,trainPhase
4,3,A450,Alpha,Beta,False,961,2,12192,trainPhase
5,3,B650,Beta,Beta,True,4751,2,12192,trainPhase
6,3,B550,Beta,Beta,True,2983,2,12192,trainPhase
7,3,C1250,Gamma,Gamma,True,1805,2,12192,trainPhase
8,3,C1050,Gamma,Gamma,True,4867,2,12192,trainPhase
9,3,C1150,Gamma,Gamma,True,966,2,12192,trainPhase
10,3,A50,Alpha,Alpha,True,1249,2,12192,trainPhase
11,3,C1350,Gamma,Gamma,True,1644,2,12192,trainPhase
12,3,B750,Beta,Beta,True,4122,2,12192,trainPhase
13,3,A150,Alpha,Alpha,True,1191,2,12192,trainPhase
14,3,A250,Alpha,Alpha,True,1006,2,12192,trainPhase
0,4,B550,Beta,Beta,True,9245,2,12192,trainPhase
1,4,A350,Alpha,Alpha,True,3053,2,12192,trainPhase
2,4,C1350,Gamma,Gamma,True,1022,2,12192,trainPhase
3,4,C1150,Gamma,Gamma,True,4125,2,12192,trainPhase
4,4,B650,Beta,Beta,True,2922,2,12192,trainPhase
5,4,A50,Alpha,Alpha,True,948,2,12192,trainPhase
6,4,B750,Beta,Beta,True,2845,2,12192,trainPhase
7,4,C1250,Gamma,Gamma,True,1377,2,12192,trainPhase
8,4,C1450,Gamma,Gamma,True,1256,2,12192,trainPhase
9,4,C1050,Gamma,Gamma,True,6013,2,12192,trainPhase
10,4,B950,Beta,Beta,True,10953,2,12192,trainPhase
11,4,A250,Alpha,Alpha,True,2639,2,12192,trainPhase
12,4,B850,Beta,Beta,True,2557,2,12192,trainPhase
13,4,A150,Alpha,Alpha,True,3553,2,12192,trainPhase
14,4,A450,Alpha,Alpha,True,11777,2,12192,trainPhase
0,0,C1350,Gamma,Beta,False,2741,2,12134,trainPhase
1,0,C1250,Gamma,Gamma,True,1325,2,12134,trainPhase
2,0,B750,Beta,Beta,True,1478,2,12134,trainPhase
3,0,A450,Alpha,Alpha,True,1156,2,12134,trainPhase
4,0,C1050,Gamma,Beta,False,1084,2,12134,trainPhase
5,0,B950,Beta,Beta,True,2014,2,12134,trainPhase
6,0,A250,Alpha,Alpha,True,1021,2,12134,trainPhase
7,0,B850,Beta,Beta,True,866,2,12134,trainPhase
8,0,B650,Beta,Beta,True,1318,2,12134,trainPhase
9,0,C1150,Gamma,Gamma,True,885,2,12134,trainPhase
10,0,B550,Beta,Beta,True,638,2,12134,trainPhase
11,0,A50,Alpha,Alpha,True,773,2,12134,trainPhase
12,0,A350,Alpha,Beta,False,886,2,12134,trainPhase
13,0,A150,Alpha,Alpha,True,846,2,12134,trainPhase
14,0,C1450,Gamma,Gamma,True,885,2,12134,trainPhase
0,1,C1150,Gamma,Beta,False,862,2,12134,trainPhase
1,1,B850,Beta,Beta,True,1173,2,12134,trainPhase
2,1,B750,Beta,Beta,True,861,2,12134,trainPhase
3,1,A450,Alpha,Beta,False,1212,2,12134,trainPhase
4,1,A250,Alpha,Alpha,True,765,2,12134,trainPhase
5,1,B950,Beta,Gamma,False,1172,2,12134,trainPhase
6,1,A350,Alpha,Beta,False,2749,2,12134,trainPhase
7,1,B650,Beta,Beta,True,938,2,12134,trainPhase
8,1,A150,Alpha,Alpha,True,958,2,12134,trainPhase
9,1,C1450,Gamma,Gamma,True,889,2,12134,trainPhase
10,1,C1250,Gamma,Gamma,True,651,2,12134,trainPhase
11,1,B550,Beta,Beta,True,1581,2,12134,trainPhase
12,1,C1050,Gamma,Gamma,True,724,2,12134,trainPhase
13,1,C1350,Gamma,Gamma,True,605,2,12134,trainPhase
14,1,A50,Alpha,Alpha,True,934,2,12134,trainPhase
0,2,B750,Beta,Gamma,False,1228,2,12134,trainPhase
1,2,A350,Alpha,Alpha,True,3361,2,12134,trainPhase
2,2,C1150,Gamma,Gamma,True,837,2,12134,trainPhase
3,2,C1250,Gamma,Gamma,True,470,2,12134,trainPhase
4,2,C1050,Gamma,Gamma,True,565,2,12134,trainPhase
5,2,B950,Beta,Gamma,False,421,2,12134,trainPhase
6,2,A250,Alpha,Alpha,True,3498,2,12134,trainPhase
7,2,C1350,Gamma,Gamma,True,921,2,12134,trainPhase
8,2,C1450,Gamma,Gamma,True,622,2,12134,trainPhase
9,2,B650,Beta,Beta,True,1548,2,12134,trainPhase
10,2,A50,Alpha,Alpha,True,989,2,12134,trainPhase
11,2,A450,Alpha,Alpha,True,750,2,12134,trainPhase
12,2,B850,Beta,Beta,True,1174,2,12134,trainPhase
13,2,A150,Alpha,Alpha,True,836,2,12134,trainPhase
14,2,B550,Beta,Beta,True,1206,2,12134,trainPhase
0,3,B850,Beta,Beta,True,1471,2,12134,trainPhase
1,3,B950,Beta,Beta,True,902,2,12134,trainPhase
2,3,C1250,Gamma,Beta,False,565,2,12134,trainPhase
3,3,C1350,Gamma,Gamma,True,667,2,12134,trainPhase
4,3,A150,Alpha,Alpha,True,861,2,12134,trainPhase
5,3,C1450,Gamma,Gamma,True,773,2,12134,trainPhase
6,3,A50,Alpha,Alpha,True,614,2,12134,trainPhase
7,3,B750,Beta,Beta,True,1014,2,12134,trainPhase
8,3,B650,Beta,Beta,True,645,2,12134,trainPhase
9,3,A450,Alpha,Beta,False,1030,2,12134,trainPhase
10,3,B550,Beta,Alpha,False,966,2,12134,trainPhase
11,3,A250,Alpha,Alpha,True,1831,2,12134,trainPhase
12,3,C1150,Gamma,Gamma,True,557,2,12134,trainPhase
13,3,A350,Alpha,Alpha,True,1181,2,12134,trainPhase
14,3,C1050,Gamma,Gamma,True,871,2,12134,trainPhase
0,4,A150,Alpha,Alpha,True,1182,2,12134,trainPhase
1,4,B850,Beta,Alpha,False,1126,2,12134,trainPhase
2,4,A50,Alpha,Alpha,True,2045,2,12134,trainPhase
3,4,C1450,Gamma,Gamma,True,823,2,12134,trainPhase
4,4,C1050,Gamma,Gamma,True,1478,2,12134,trainPhase
5,4,C1150,Gamma,Gamma,True,590,2,12134,trainPhase
6,4,C1250,Gamma,Gamma,True,566,2,12134,trainPhase
7,4,B950,Beta,Gamma,False,654,2,12134,trainPhase
8,4,B550,Beta,Beta,True,2603,2,12134,trainPhase
9,4,C1350,Gamma,Gamma,True,742,2,12134,trainPhase
10,4,A450,Alpha,Alpha,True,1173,2,12134,trainPhase
11,4,B750,Beta,Beta,True,854,2,12134,trainPhase
12,4,A350,Alpha,Alpha,True,797,2,12134,trainPhase
13,4,A250,Alpha,Alpha,True,903,2,12134,trainPhase
14,4,B650,Beta,Alpha,False,534,2,12134,trainPhase
0,0,B650,Beta,Alpha,False,2590,2,12194,trainPhase
1,0,B950,Beta,Beta,True,1583,2,12194,trainPhase
2,0,B750,Beta,Beta,True,1588,2,12194,trainPhase
3,0,A450,Alpha,Alpha,True,1158,2,12194,trainPhase
4,0,B550,Beta,Alpha,False,1379,2,12194,trainPhase
5,0,C1050,Gamma,Gamma,True,1074,2,12194,trainPhase
6,0,C1250,Gamma,Gamma,True,1209,2,12194,trainPhase
7,0,A250,Alpha,Alpha,True,1197,2,12194,trainPhase
8,0,A350,Alpha,Beta,False,1762,2,12194,trainPhase
9,0,C1350,Gamma,Gamma,True,1003,2,12194,trainPhase
10,0,A50,Alpha,Alpha,True,1012,2,12194,trainPhase
11,0,A150,Alpha,Beta,False,1725,2,12194,trainPhase
12,0,B850,Beta,Gamma,False,1198,2,12194,trainPhase
13,0,C1450,Gamma,Gamma,True,975,2,12194,trainPhase
14,0,C1150,Gamma,Beta,False,856,2,12194,trainPhase
0,1,C1450,Gamma,Gamma,True,1226,2,12194,trainPhase
1,1,A50,Alpha,Alpha,True,1034,2,12194,trainPhase
2,1,A350,Alpha,Beta,False,1397,2,12194,trainPhase
3,1,C1350,Gamma,Gamma,True,1355,2,12194,trainPhase
4,1,A150,Alpha,Alpha,True,1222,2,12194,trainPhase
5,1,A450,Alpha,Alpha,True,1045,2,12194,trainPhase
6,1,A250,Alpha,Alpha,True,765,2,12194,trainPhase
7,1,B650,Beta,Beta,True,1228,2,12194,trainPhase
8,1,C1150,Gamma,Gamma,True,1663,2,12194,trainPhase
9,1,B950,Beta,Gamma,False,933,2,12194,trainPhase
10,1,C1250,Gamma,Gamma,True,1582,2,12194,trainPhase
11,1,B750,Beta,Beta,True,1054,2,12194,trainPhase
12,1,B850,Beta,Beta,True,900,2,12194,trainPhase
13,1,C1050,Gamma,Gamma,True,1004,2,12194,trainPhase
14,1,B550,Beta,Beta,True,751,2,12194,trainPhase
0,2,C1050,Gamma,Gamma,True,906,2,12194,trainPhase
1,2,C1250,Gamma,Gamma,True,979,2,12194,trainPhase
2,2,B950,Beta,Beta,True,1254,2,12194,trainPhase
3,2,A50,Alpha,Alpha,True,872,2,12194,trainPhase
4,2,C1150,Gamma,Beta,False,1295,2,12194,trainPhase
5,2,A350,Alpha,Beta,False,806,2,12194,trainPhase
6,2,A450,Alpha,Alpha,True,1213,2,12194,trainPhase
7,2,B550,Beta,Alpha,False,2070,2,12194,trainPhase
8,2,B850,Beta,Beta,True,1354,2,12194,trainPhase
9,2,A250,Alpha,Alpha,True,1005,2,12194,trainPhase
10,2,B650,Beta,Beta,True,726,2,12194,trainPhase
11,2,A150,Alpha,Alpha,True,998,2,12194,trainPhase
12,2,C1350,Gamma,Gamma,True,1498,2,12194,trainPhase
13,2,B750,Beta,Beta,True,868,2,12194,trainPhase
14,2,C1450,Gamma,Gamma,True,1293,2,12194,trainPhase
0,3,B850,Beta,Beta,True,1325,2,12194,trainPhase
1,3,B950,Beta,Beta,True,797,2,12194,trainPhase
2,3,C1050,Gamma,Beta,False,1133,2,12194,trainPhase
3,3,A50,Alpha,Alpha,True,1008,2,12194,trainPhase
4,3,A350,Alpha,Beta,False,1485,2,12194,trainPhase
5,3,C1450,Gamma,Gamma,True,1309,2,12194,trainPhase
6,3,C1350,Gamma,Gamma,True,1086,2,12194,trainPhase
7,3,A450,Alpha,Beta,False,1361,2,12194,trainPhase
8,3,B750,Beta,Beta,True,918,2,12194,trainPhase
9,3,C1150,Gamma,Gamma,True,1052,2,12194,trainPhase
10,3,B550,Beta,Beta,True,1188,2,12194,trainPhase
11,3,C1250,Gamma,Gamma,True,848,2,12194,trainPhase
12,3,B650,Beta,Beta,True,915,2,12194,trainPhase
13,3,A250,Alpha,Alpha,True,1636,2,12194,trainPhase
14,3,A150,Alpha,Alpha,True,686,2,12194,trainPhase
0,4,A150,Alpha,Alpha,True,597,2,12194,trainPhase
1,4,C1050,Gamma,Beta,False,1349,2,12194,trainPhase
2,4,B750,Beta,Gamma,False,1010,2,12194,trainPhase
3,4,B850,Beta,Beta,True,901,2,12194,trainPhase
4,4,A350,Alpha,Alpha,True,1182,2,12194,trainPhase
5,4,A250,Alpha,Alpha,True,884,2,12194,trainPhase
6,4,B550,Beta,Beta,True,838,2,12194,trainPhase
7,4,C1450,Gamma,Gamma,True,1030,2,12194,trainPhase
8,4,C1250,Gamma,Gamma,True,979,2,12194,trainPhase
9,4,C1150,Gamma,Gamma,True,1137,2,12194,trainPhase
10,4,C1350,Gamma,Gamma,True,1118,2,12194,trainPhase
11,4,A50,Alpha,Alpha,True,1022,2,12194,trainPhase
12,4,B950,Beta,Beta,True,996,2,12194,trainPhase
13,4,A450,Alpha,Beta,False,1477,2,12194,trainPhase
14,4,B650,Beta,Beta,True,866,2,12194,trainPhase
0,0,A150,Alpha,Alpha,True,7826,2,12197,trainPhase
1,0,C1350,Gamma,Gamma,True,2644,2,12197,trainPhase
2,0,C1150,Gamma,Beta,False,2074,2,12197,trainPhase
3,0,C1450,Gamma,Gamma,True,1523,2,12197,trainPhase
4,0,B950,Beta,Gamma,False,2525,2,12197,trainPhase
5,0,B650,Beta,Beta,True,933,2,12197,trainPhase
6,0,A350,Alpha,Alpha,True,2102,2,12197,trainPhase
7,0,B850,Beta,Beta,True,1575,2,12197,trainPhase
8,0,A450,Alpha,Beta,False,1173,2,12197,trainPhase
9,0,A250,Alpha,Alpha,True,2081,2,12197,trainPhase
10,0,B750,Beta,Beta,True,2513,2,12197,trainPhase
11,0,B550,Beta,Beta,True,1303,2,12197,trainPhase
12,0,C1250,Gamma,Gamma,True,1192,2,12197,trainPhase
13,0,A50,Alpha,Alpha,True,1282,2,12197,trainPhase
14,0,C1050,Gamma,Gamma,True,2221,2,12197,trainPhase
0,1,B650,Beta,Beta,True,782,2,12197,trainPhase
1,1,C1150,Gamma,Gamma,True,1929,2,12197,trainPhase
2,1,A50,Alpha,Alpha,True,1089,2,12197,trainPhase
3,1,B950,Beta,Gamma,False,3906,2,12197,trainPhase
4,1,A450,Alpha,Alpha,True,2249,2,12197,trainPhase
5,1,C1350,Gamma,Gamma,True,1286,2,12197,trainPhase
6,1,B850,Beta,Beta,True,1205,2,12197,trainPhase
7,1,A150,Alpha,Alpha,True,1006,2,12197,trainPhase
8,1,B750,Beta,Beta,True,2225,2,12197,trainPhase
9,1,A250,Alpha,Alpha,True,1041,2,12197,trainPhase
10,1,C1250,Gamma,Gamma,True,1011,2,12197,trainPhase
11,1,C1050,Gamma,Gamma,True,2153,2,12197,trainPhase
12,1,C1450,Gamma,Gamma,True,1039,2,12197,trainPhase
13,1,A350,Alpha,Alpha,True,1052,2,12197,trainPhase
14,1,B550,Beta,Beta,True,885,2,12197,trainPhase
0,2,A150,Alpha,Alpha,True,916,2,12197,trainPhase
1,2,C1350,Gamma,Gamma,True,1497,2,12197,trainPhase
2,2,B850,Beta,Beta,True,964,2,12197,trainPhase
3,2,B550,Beta,Beta,True,969,2,12197,trainPhase
4,2,A350,Alpha,Alpha,True,865,2,12197,trainPhase
5,2,B950,Beta,Beta,True,1103,2,12197,trainPhase
6,2,C1450,Gamma,Gamma,True,853,2,12197,trainPhase
7,2,A450,Alpha,Alpha,True,1034,2,12197,trainPhase
8,2,C1150,Gamma,Gamma,True,2560,2,12197,trainPhase
9,2,A250,Alpha,Alpha,True,1040,2,12197,trainPhase
10,2,C1250,Gamma,Gamma,True,1057,2,12197,trainPhase
11,2,B650,Beta,Beta,True,1291,2,12197,trainPhase
12,2,A50,Alpha,Alpha,True,935,2,12197,trainPhase
13,2,B750,Beta,Beta,True,771,2,12197,trainPhase
14,2,C1050,Gamma,Gamma,True,1330,2,12197,trainPhase
0,3,B950,Beta,Beta,True,1225,2,12197,trainPhase
1,3,C1250,Gamma,Gamma,True,1133,2,12197,trainPhase
2,3,C1450,Gamma,Gamma,True,1531,2,12197,trainPhase
3,3,C1050,Gamma,Gamma,True,2356,2,12197,trainPhase
4,3,A350,Alpha,Alpha,True,1477,2,12197,trainPhase
5,3,B850,Beta,Beta,True,679,2,12197,trainPhase
6,3,A50,Alpha,Alpha,True,867,2,12197,trainPhase
7,3,A150,Alpha,Alpha,True,1245,2,12197,trainPhase
8,3,B550,Beta,Beta,True,960,2,12197,trainPhase
9,3,A450,Alpha,Beta,False,891,2,12197,trainPhase
10,3,C1350,Gamma,Gamma,True,1237,2,12197,trainPhase
11,3,C1150,Gamma,Gamma,True,1180,2,12197,trainPhase
12,3,B750,Beta,Beta,True,873,2,12197,trainPhase
13,3,B650,Beta,Beta,True,917,2,12197,trainPhase
14,3,A250,Alpha,Alpha,True,1005,2,12197,trainPhase
0,4,B550,Beta,Beta,True,1631,2,12197,trainPhase
1,4,C1350,Gamma,Gamma,True,1052,2,12197,trainPhase
2,4,B950,Beta,Beta,True,1706,2,12197,trainPhase
3,4,C1150,Gamma,Gamma,True,1102,2,12197,trainPhase
4,4,A150,Alpha,Alpha,True,891,2,12197,trainPhase
5,4,A350,Alpha,Alpha,True,1794,2,12197,trainPhase
6,4,C1450,Gamma,Gamma,True,1040,2,12197,trainPhase
7,4,A250,Alpha,Alpha,True,1133,2,12197,trainPhase
8,4,C1050,Gamma,Beta,False,1001,2,12197,trainPhase
9,4,C1250,Gamma,Gamma,True,913,2,12197,trainPhase
10,4,A450,Alpha,Beta,False,1103,2,12197,trainPhase
11,4,B850,Beta,Beta,True,725,2,12197,trainPhase
12,4,A50,Alpha,Alpha,True,841,2,12197,trainPhase
13,4,B650,Beta,Beta,True,677,2,12197,trainPhase
14,4,B750,Beta,Beta,True,886,2,12197,trainPhase
0,0,B550,Beta,Alpha,False,2592,2,12200,trainPhase
1,0,B850,Beta,Beta,True,2902,2,12200,trainPhase
2,0,A150,Alpha,Beta,False,1647,2,12200,trainPhase
3,0,A50,Alpha,Gamma,False,2883,2,12200,trainPhase
4,0,C1150,Gamma,Gamma,True,1445,2,12200,trainPhase
5,0,A250,Alpha,Beta,False,1003,2,12200,trainPhase
6,0,B750,Beta,Beta,True,1815,2,12200,trainPhase
7,0,B650,Beta,Beta,True,2150,2,12200,trainPhase
8,0,C1250,Gamma,Gamma,True,1340,2,12200,trainPhase
9,0,C1350,Gamma,Gamma,True,1489,2,12200,trainPhase
10,0,A350,Alpha,Alpha,True,4193,2,12200,trainPhase
11,0,B950,Beta,Beta,True,1619,2,12200,trainPhase
12,0,C1450,Gamma,Gamma,True,1158,2,12200,trainPhase
13,0,A450,Alpha,Alpha,True,990,2,12200,trainPhase
14,0,C1050,Gamma,Beta,False,1421,2,12200,trainPhase
0,1,A350,Alpha,Alpha,True,1454,2,12200,trainPhase
1,1,B750,Beta,Beta,True,1667,2,12200,trainPhase
2,1,C1250,Gamma,Gamma,True,1398,2,12200,trainPhase
3,1,C1450,Gamma,Gamma,True,1236,2,12200,trainPhase
4,1,B550,Beta,Beta,True,1277,2,12200,trainPhase
5,1,A250,Alpha,Alpha,True,997,2,12200,trainPhase
6,1,C1050,Gamma,Beta,False,1080,2,12200,trainPhase
7,1,A50,Alpha,Alpha,True,1189,2,12200,trainPhase
8,1,C1150,Gamma,Gamma,True,1030,2,12200,trainPhase
9,1,B650,Beta,Beta,True,1364,2,12200,trainPhase
10,1,B850,Beta,Gamma,False,1404,2,12200,trainPhase
11,1,C1350,Gamma,Gamma,True,1181,2,12200,trainPhase
12,1,B950,Beta,Gamma,False,1524,2,12200,trainPhase
13,1,A150,Alpha,Alpha,True,1077,2,12200,trainPhase
14,1,A450,Alpha,Alpha,True,2557,2,12200,trainPhase
0,2,B950,Beta,Beta,True,933,2,12200,trainPhase
1,2,B550,Beta,Beta,True,998,2,12200,trainPhase
2,2,A50,Alpha,Alpha,True,1294,2,12200,trainPhase
3,2,A250,Alpha,Alpha,True,1261,2,12200,trainPhase
4,2,A350,Alpha,Alpha,True,1398,2,12200,trainPhase
5,2,A450,Alpha,Alpha,True,1141,2,12200,trainPhase
6,2,B850,Beta,Beta,True,1021,2,12200,trainPhase
7,2,B750,Beta,Beta,True,964,2,12200,trainPhase
8,2,A150,Alpha,Alpha,True,1190,2,12200,trainPhase
9,2,C1350,Gamma,Gamma,True,1182,2,12200,trainPhase
10,2,C1250,Gamma,Gamma,True,1235,2,12200,trainPhase
11,2,C1050,Gamma,Gamma,True,1522,2,12200,trainPhase
12,2,B650,Beta,Beta,True,1310,2,12200,trainPhase
13,2,C1450,Gamma,Gamma,True,1237,2,12200,trainPhase
14,2,C1150,Gamma,Gamma,True,1729,2,12200,trainPhase
0,3,A150,Alpha,Alpha,True,1131,2,12200,trainPhase
1,3,C1350,Gamma,Gamma,True,4377,2,12200,trainPhase
2,3,A450,Alpha,Beta,False,1406,2,12200,trainPhase
3,3,A50,Alpha,Alpha,True,864,2,12200,trainPhase
4,3,C1150,Gamma,Gamma,True,1686,2,12200,trainPhase
5,3,B550,Beta,Beta,True,786,2,12200,trainPhase
6,3,A350,Alpha,Alpha,True,1407,2,12200,trainPhase
7,3,B950,Beta,Beta,True,2277,2,12200,trainPhase
8,3,C1450,Gamma,Gamma,True,1093,2,12200,trainPhase
9,3,B750,Beta,Beta,True,978,2,12200,trainPhase
10,3,A250,Alpha,Alpha,True,1326,2,12200,trainPhase
11,3,B850,Beta,Beta,True,1098,2,12200,trainPhase
12,3,C1250,Gamma,Gamma,True,1261,2,12200,trainPhase
13,3,B650,Beta,Beta,True,1162,2,12200,trainPhase
14,3,C1050,Gamma,Gamma,True,1517,2,12200,trainPhase
0,4,C1150,Gamma,Gamma,True,1099,2,12200,trainPhase
1,4,A250,Alpha,Alpha,True,1045,2,12200,trainPhase
2,4,A450,Alpha,Beta,False,1165,2,12200,trainPhase
3,4,B950,Beta,Beta,True,1093,2,12200,trainPhase
4,4,C1250,Gamma,Gamma,True,947,2,12200,trainPhase
5,4,C1050,Gamma,Beta,False,1278,2,12200,trainPhase
6,4,C1450,Gamma,Gamma,True,1046,2,12200,trainPhase
7,4,B650,Beta,Beta,True,1245,2,12200,trainPhase
8,4,A150,Alpha,Alpha,True,1246,2,12200,trainPhase
9,4,B850,Beta,Beta,True,1128,2,12200,trainPhase
10,4,A350,Alpha,Alpha,True,1055,2,12200,trainPhase
11,4,C1350,Gamma,Gamma,True,1102,2,12200,trainPhase
12,4,B750,Beta,Beta,True,982,2,12200,trainPhase
13,4,B550,Beta,Beta,True,879,2,12200,trainPhase
14,4,A50,Alpha,Alpha,True,1222,2,12200,trainPhase
0,0,C1150,Gamma,Alpha,False,4486,2,12203,trainPhase
1,0,A50,Alpha,Alpha,True,1449,2,12203,trainPhase
2,0,C1350,Gamma,Gamma,True,1198,2,12203,trainPhase
3,0,A450,Alpha,Beta,False,1155,2,12203,trainPhase
4,0,C1450,Gamma,Gamma,True,1061,2,12203,trainPhase
5,0,A150,Alpha,Alpha,True,1224,2,12203,trainPhase
6,0,C1250,Gamma,Gamma,True,894,2,12203,trainPhase
7,0,A350,Alpha,Alpha,True,1502,2,12203,trainPhase
8,0,B750,Beta,Beta,True,856,2,12203,trainPhase
9,0,A250,Alpha,Alpha,True,1113,2,12203,trainPhase
10,0,B950,Beta,Beta,True,2516,2,12203,trainPhase
11,0,B550,Beta,Alpha,False,1088,2,12203,trainPhase
12,0,C1050,Gamma,Beta,False,1177,2,12203,trainPhase
13,0,B850,Beta,Gamma,False,1573,2,12203,trainPhase
14,0,B650,Beta,Beta,True,1326,2,12203,trainPhase
0,1,B850,Beta,Gamma,False,1049,2,12203,trainPhase
1,1,B950,Beta,Gamma,False,1151,2,12203,trainPhase
2,1,C1050,Gamma,Beta,False,857,2,12203,trainPhase
3,1,C1450,Gamma,Gamma,True,1403,2,12203,trainPhase
4,1,A250,Alpha,Alpha,True,1045,2,12203,trainPhase
5,1,A350,Alpha,Alpha,True,1026,2,12203,trainPhase
6,1,A50,Alpha,Alpha,True,910,2,12203,trainPhase
7,1,B750,Beta,Beta,True,1081,2,12203,trainPhase
8,1,C1250,Gamma,Gamma,True,1061,2,12203,trainPhase
9,1,C1350,Gamma,Gamma,True,833,2,12203,trainPhase
10,1,B550,Beta,Beta,True,909,2,12203,trainPhase
11,1,A450,Alpha,Beta,False,892,2,12203,trainPhase
12,1,C1150,Gamma,Gamma,True,1339,2,12203,trainPhase
13,1,A150,Alpha,Alpha,True,1266,2,12203,trainPhase
14,1,B650,Beta,Beta,True,1157,2,12203,trainPhase
0,2,C1350,Gamma,Gamma,True,829,2,12203,trainPhase
1,2,C1250,Gamma,Gamma,True,917,2,12203,trainPhase
2,2,A150,Alpha,Alpha,True,974,2,12203,trainPhase
3,2,A350,Alpha,Alpha,True,2080,2,12203,trainPhase
4,2,C1150,Gamma,Gamma,True,1027,2,12203,trainPhase
5,2,C1050,Gamma,Beta,False,1072,2,12203,trainPhase
6,2,A450,Alpha,Alpha,True,1436,2,12203,trainPhase
7,2,B550,Beta,Beta,True,1029,2,12203,trainPhase
8,2,B950,Beta,Beta,True,1101,2,12203,trainPhase
9,2,C1450,Gamma,Gamma,True,777,2,12203,trainPhase
10,2,B850,Beta,Beta,True,1239,2,12203,trainPhase
11,2,B650,Beta,Beta,True,1391,2,12203,trainPhase
12,2,B750,Beta,Beta,True,866,2,12203,trainPhase
13,2,A250,Alpha,Alpha,True,856,2,12203,trainPhase
14,2,A50,Alpha,Alpha,True,909,2,12203,trainPhase
0,3,C1350,Gamma,Gamma,True,906,2,12203,trainPhase
1,3,B750,Beta,Beta,True,751,2,12203,trainPhase
2,3,A350,Alpha,Alpha,True,1060,2,12203,trainPhase
3,3,C1250,Gamma,Gamma,True,781,2,12203,trainPhase
4,3,B550,Beta,Beta,True,1741,2,12203,trainPhase
5,3,C1150,Gamma,Gamma,True,1285,2,12203,trainPhase
6,3,B950,Beta,Beta,True,987,2,12203,trainPhase
7,3,A450,Alpha,Beta,False,1735,2,12203,trainPhase
8,3,B850,Beta,Beta,True,742,2,12203,trainPhase
9,3,A50,Alpha,Alpha,True,935,2,12203,trainPhase
10,3,C1050,Gamma,Gamma,True,927,2,12203,trainPhase
11,3,B650,Beta,Beta,True,935,2,12203,trainPhase
12,3,A150,Alpha,Alpha,True,800,2,12203,trainPhase
13,3,A250,Alpha,Alpha,True,1000,2,12203,trainPhase
14,3,C1450,Gamma,Gamma,True,970,2,12203,trainPhase
0,4,A250,Alpha,Alpha,True,1065,2,12203,trainPhase
1,4,C1150,Gamma,Gamma,True,1503,2,12203,trainPhase
2,4,B850,Beta,Beta,True,908,2,12203,trainPhase
3,4,C1450,Gamma,Gamma,True,926,2,12203,trainPhase
4,4,B950,Beta,Beta,True,947,2,12203,trainPhase
5,4,C1350,Gamma,Gamma,True,992,2,12203,trainPhase
6,4,A150,Alpha,Alpha,True,921,2,12203,trainPhase
7,4,B650,Beta,Beta,True,1321,2,12203,trainPhase
8,4,C1050,Gamma,Beta,False,1108,2,12203,trainPhase
9,4,B750,Beta,Beta,True,796,2,12203,trainPhase
10,4,B550,Beta,Beta,True,1373,2,12203,trainPhase
11,4,A50,Alpha,Alpha,True,893,2,12203,trainPhase
12,4,A350,Alpha,Alpha,True,1212,2,12203,trainPhase
13,4,C1250,Gamma,Gamma,True,1003,2,12203,trainPhase
14,4,A450,Alpha,Beta,False,1049,2,12203,trainPhase
0,0,C1450,Gamma,Alpha,False,4927,2,12219,trainPhase
1,0,C1050,Gamma,Beta,False,1855,2,12219,trainPhase
2,0,A250,Alpha,Beta,False,1523,2,12219,trainPhase
3,0,C1350,Gamma,Gamma,True,2089,2,12219,trainPhase
4,0,A350,Alpha,Alpha,True,1754,2,12219,trainPhase
5,0,B650,Beta,Beta,True,3769,2,12219,trainPhase
6,0,C1150,Gamma,Gamma,True,1490,2,12219,trainPhase
7,0,A150,Alpha,Alpha,True,1173,2,12219,trainPhase
8,0,B950,Beta,Beta,True,1061,2,12219,trainPhase
9,0,B850,Beta,Beta,True,1313,2,12219,trainPhase
10,0,A450,Alpha,Alpha,True,1952,2,12219,trainPhase
11,0,C1250,Gamma,Gamma,True,1128,2,12219,trainPhase
12,0,B550,Beta,Beta,True,1401,2,12219,trainPhase
13,0,B750,Beta,Beta,True,1323,2,12219,trainPhase
14,0,A50,Alpha,Alpha,True,1098,2,12219,trainPhase
0,1,A450,Alpha,Beta,False,814,2,12219,trainPhase
1,1,A50,Alpha,Alpha,True,1090,2,12219,trainPhase
2,1,B950,Beta,Beta,True,3076,2,12219,trainPhase
3,1,C1150,Gamma,Gamma,True,1070,2,12219,trainPhase
4,1,B850,Beta,Beta,True,887,2,12219,trainPhase
5,1,B550,Beta,Beta,True,4528,2,12219,trainPhase
6,1,C1050,Gamma,Gamma,True,3465,2,12219,trainPhase
7,1,A250,Alpha,Alpha,True,1486,2,12219,trainPhase
8,1,C1450,Gamma,Gamma,True,1426,2,12219,trainPhase
9,1,B650,Beta,Beta,True,1666,2,12219,trainPhase
10,1,B750,Beta,Beta,True,1295,2,12219,trainPhase
11,1,A150,Alpha,Alpha,True,906,2,12219,trainPhase
12,1,C1350,Gamma,Gamma,True,991,2,12219,trainPhase
13,1,C1250,Gamma,Gamma,True,1014,2,12219,trainPhase
14,1,A350,Alpha,Alpha,True,1420,2,12219,trainPhase
0,2,A250,Alpha,Alpha,True,929,2,12219,trainPhase
1,2,B850,Beta,Beta,True,1421,2,12219,trainPhase
2,2,B650,Beta,Beta,True,1587,2,12219,trainPhase
3,2,A350,Alpha,Alpha,True,1026,2,12219,trainPhase
4,2,A50,Alpha,Alpha,True,815,2,12219,trainPhase
5,2,A450,Alpha,Beta,False,948,2,12219,trainPhase
6,2,B950,Beta,Beta,True,1664,2,12219,trainPhase
7,2,B550,Beta,Beta,True,960,2,12219,trainPhase
8,2,A150,Alpha,Alpha,True,920,2,12219,trainPhase
9,2,C1250,Gamma,Gamma,True,1196,2,12219,trainPhase
10,2,B750,Beta,Beta,True,906,2,12219,trainPhase
11,2,C1350,Gamma,Gamma,True,852,2,12219,trainPhase
12,2,C1150,Gamma,Gamma,True,862,2,12219,trainPhase
13,2,C1050,Gamma,Gamma,True,933,2,12219,trainPhase
14,2,C1450,Gamma,Gamma,True,951,2,12219,trainPhase
0,3,B550,Beta,Beta,True,843,2,12219,trainPhase
1,3,C1050,Gamma,Gamma,True,1525,2,12219,trainPhase
2,3,C1150,Gamma,Gamma,True,877,2,12219,trainPhase
3,3,A250,Alpha,Alpha,True,1335,2,12219,trainPhase
4,3,C1350,Gamma,Gamma,True,938,2,12219,trainPhase
5,3,A150,Alpha,Alpha,True,1035,2,12219,trainPhase
6,3,B650,Beta,Beta,True,1759,2,12219,trainPhase
7,3,C1250,Gamma,Gamma,True,1095,2,12219,trainPhase
8,3,C1450,Gamma,Gamma,True,993,2,12219,trainPhase
9,3,B850,Beta,Beta,True,2008,2,12219,trainPhase
10,3,B950,Beta,Beta,True,1039,2,12219,trainPhase
11,3,B750,Beta,Beta,True,995,2,12219,trainPhase
12,3,A50,Alpha,Alpha,True,937,2,12219,trainPhase
13,3,A450,Alpha,Alpha,True,941,2,12219,trainPhase
14,3,A350,Alpha,Alpha,True,951,2,12219,trainPhase
0,4,C1150,Gamma,Gamma,True,1628,2,12219,trainPhase
1,4,A50,Alpha,Alpha,True,870,2,12219,trainPhase
2,4,C1050,Gamma,Gamma,True,2131,2,12219,trainPhase
3,4,C1350,Gamma,Gamma,True,831,2,12219,trainPhase
4,4,C1250,Gamma,Gamma,True,886,2,12219,trainPhase
5,4,B550,Beta,Beta,True,1461,2,12219,trainPhase
6,4,B650,Beta,Beta,True,799,2,12219,trainPhase
7,4,B850,Beta,Beta,True,1191,2,12219,trainPhase
8,4,A350,Alpha,Alpha,True,2728,2,12219,trainPhase
9,4,B950,Beta,Beta,True,2140,2,12219,trainPhase
10,4,B750,Beta,Beta,True,1253,2,12219,trainPhase
11,4,A250,Alpha,Alpha,True,1398,2,12219,trainPhase
12,4,A450,Alpha,Beta,False,4092,2,12219,trainPhase
13,4,A150,Alpha,Alpha,True,945,2,12219,trainPhase
14,4,C1450,Gamma,Gamma,True,806,2,12219,trainPhase
0,0,A50,Alpha,Alpha,True,3768,2,12222,trainPhase
1,0,B950,Beta,Beta,True,2397,2,12222,trainPhase
2,0,C1250,Gamma,Gamma,True,1359,2,12222,trainPhase
3,0,A150,Alpha,Alpha,True,1174,2,12222,trainPhase
4,0,C1150,Gamma,Gamma,True,1244,2,12222,trainPhase
5,0,B550,Beta,Beta,True,1156,2,12222,trainPhase
6,0,B650,Beta,Beta,True,1353,2,12222,trainPhase
7,0,A250,Alpha,Alpha,True,1299,2,12222,trainPhase
8,0,B750,Beta,Gamma,False,4092,2,12222,trainPhase
9,0,C1050,Gamma,Gamma,True,1025,2,12222,trainPhase
10,0,C1350,Gamma,Gamma,True,988,2,12222,trainPhase
11,0,B850,Beta,Beta,True,790,2,12222,trainPhase
12,0,C1450,Gamma,Gamma,True,798,2,12222,trainPhase
13,0,A350,Alpha,Alpha,True,1062,2,12222,trainPhase
14,0,A450,Alpha,Alpha,True,973,2,12222,trainPhase
0,1,A350,Alpha,Alpha,True,1005,2,12222,trainPhase
1,1,C1450,Gamma,Gamma,True,750,2,12222,trainPhase
2,1,A250,Alpha,Alpha,True,1147,2,12222,trainPhase
3,1,A150,Alpha,Alpha,True,978,2,12222,trainPhase
4,1,C1350,Gamma,Gamma,True,733,2,12222,trainPhase
5,1,B750,Beta,Beta,True,757,2,12222,trainPhase
6,1,A450,Alpha,Alpha,True,1134,2,12222,trainPhase
7,1,A50,Alpha,Alpha,True,998,2,12222,trainPhase
8,1,C1250,Gamma,Gamma,True,756,2,12222,trainPhase
9,1,B650,Beta,Beta,True,758,2,12222,trainPhase
10,1,B850,Beta,Beta,True,1986,2,12222,trainPhase
11,1,B950,Beta,Beta,True,1710,2,12222,trainPhase
12,1,B550,Beta,Beta,True,3621,2,12222,trainPhase
13,1,C1050,Gamma,Gamma,True,837,2,12222,trainPhase
14,1,C1150,Gamma,Gamma,True,854,2,12222,trainPhase
0,2,B750,Beta,Beta,True,893,2,12222,trainPhase
1,2,B850,Beta,Beta,True,869,2,12222,trainPhase
2,2,B550,Beta,Beta,True,2380,2,12222,trainPhase
3,2,A150,Alpha,Alpha,True,830,2,12222,trainPhase
4,2,A350,Alpha,Alpha,True,1717,2,12222,trainPhase
5,2,A450,Alpha,Alpha,True,2631,2,12222,trainPhase
6,2,A50,Alpha,Alpha,True,710,2,12222,trainPhase
7,2,B650,Beta,Beta,True,765,2,12222,trainPhase
8,2,B950,Beta,Gamma,False,791,2,12222,trainPhase
9,2,A250,Alpha,Beta,False,686,2,12222,trainPhase
10,2,C1150,Gamma,Gamma,True,1056,2,12222,trainPhase
11,2,C1050,Gamma,Gamma,True,838,2,12222,trainPhase
12,2,C1450,Gamma,Gamma,True,653,2,12222,trainPhase
13,2,C1350,Gamma,Gamma,True,669,2,12222,trainPhase
14,2,C1250,Gamma,Gamma,True,829,2,12222,trainPhase
0,3,A150,Alpha,Alpha,True,855,2,12222,trainPhase
1,3,B750,Beta,Beta,True,967,2,12222,trainPhase
2,3,C1150,Gamma,Gamma,True,781,2,12222,trainPhase
3,3,B650,Beta,Beta,True,872,2,12222,trainPhase
4,3,A450,Alpha,Beta,False,698,2,12222,trainPhase
5,3,C1050,Gamma,Gamma,True,972,2,12222,trainPhase
6,3,C1350,Gamma,Gamma,True,734,2,12222,trainPhase
7,3,B950,Beta,Beta,True,1030,2,12222,trainPhase
8,3,B550,Beta,Beta,True,1161,2,12222,trainPhase
9,3,C1250,Gamma,Gamma,True,870,2,12222,trainPhase
10,3,C1450,Gamma,Gamma,True,582,2,12222,trainPhase
11,3,A350,Alpha,Alpha,True,4661,2,12222,trainPhase
12,3,A250,Alpha,Alpha,True,853,2,12222,trainPhase
13,3,B850,Beta,Beta,True,1950,2,12222,trainPhase
14,3,A50,Alpha,Alpha,True,878,2,12222,trainPhase
0,4,B750,Beta,Beta,True,789,2,12222,trainPhase
1,4,C1150,Gamma,Gamma,True,736,2,12222,trainPhase
2,4,A50,Alpha,Alpha,True,894,2,12222,trainPhase
3,4,C1350,Gamma,Gamma,True,1237,2,12222,trainPhase
4,4,C1050,Gamma,Gamma,True,862,2,12222,trainPhase
5,4,C1450,Gamma,Gamma,True,1254,2,12222,trainPhase
6,4,B850,Beta,Gamma,False,1492,2,12222,trainPhase
7,4,B550,Beta,Beta,True,651,2,12222,trainPhase
8,4,A250,Alpha,Alpha,True,1030,2,12222,trainPhase
9,4,C1250,Gamma,Gamma,True,862,2,12222,trainPhase
10,4,B650,Beta,Beta,True,814,2,12222,trainPhase
11,4,A350,Alpha,Alpha,True,1848,2,12222,trainPhase
12,4,A150,Alpha,Alpha,True,742,2,12222,trainPhase
13,4,A450,Alpha,Beta,False,5087,2,12222,trainPhase
14,4,B950,Beta,Beta,True,1861,2,12222,trainPhase
0,0,B550,Beta,Alpha,False,2110,2,12225,trainPhase
1,0,B950,Beta,Gamma,False,1796,2,12225,trainPhase
2,0,A350,Alpha,Alpha,True,1686,2,12225,trainPhase
3,0,B850,Beta,Beta,True,2020,2,12225,trainPhase
4,0,C1350,Gamma,Beta,False,1070,2,12225,trainPhase
5,0,C1150,Gamma,Gamma,True,2029,2,12225,trainPhase
6,0,C1250,Gamma,Gamma,True,789,2,12225,trainPhase
7,0,A450,Alpha,Beta,False,1843,2,12225,trainPhase
8,0,A150,Alpha,Alpha,True,1325,2,12225,trainPhase
9,0,A250,Alpha,Alpha,True,1031,2,12225,trainPhase
10,0,C1450,Gamma,Gamma,True,917,2,12225,trainPhase
11,0,A50,Alpha,Alpha,True,1502,2,12225,trainPhase
12,0,C1050,Gamma,Beta,False,941,2,12225,trainPhase
13,0,B750,Beta,Beta,True,2973,2,12225,trainPhase
14,0,B650,Beta,Beta,True,1053,2,12225,trainPhase
0,1,A250,Alpha,Alpha,True,894,2,12225,trainPhase
1,1,C1250,Gamma,Gamma,True,702,2,12225,trainPhase
2,1,B850,Beta,Gamma,False,1205,2,12225,trainPhase
3,1,C1150,Gamma,Gamma,True,1517,2,12225,trainPhase
4,1,A50,Alpha,Alpha,True,856,2,12225,trainPhase
5,1,A350,Alpha,Alpha,True,4301,2,12225,trainPhase
6,1,C1350,Gamma,Gamma,True,822,2,12225,trainPhase
7,1,B550,Beta,Beta,True,1673,2,12225,trainPhase
8,1,B650,Beta,Beta,True,875,2,12225,trainPhase
9,1,B950,Beta,Gamma,False,782,2,12225,trainPhase
10,1,A450,Alpha,Beta,False,5869,2,12225,trainPhase
11,1,C1450,Gamma,Gamma,True,2582,2,12225,trainPhase
12,1,A150,Alpha,Alpha,True,836,2,12225,trainPhase
13,1,B750,Beta,Gamma,False,2963,2,12225,trainPhase
14,1,C1050,Gamma,Gamma,True,1010,2,12225,trainPhase
0,2,C1150,Gamma,Gamma,True,717,2,12225,trainPhase
1,2,C1450,Gamma,Gamma,True,686,2,12225,trainPhase
2,2,C1250,Gamma,Gamma,True,895,2,12225,trainPhase
3,2,C1350,Gamma,Gamma,True,724,2,12225,trainPhase
4,2,B850,Beta,Gamma,False,2374,2,12225,trainPhase
5,2,A450,Alpha,Alpha,True,2141,2,12225,trainPhase
6,2,A350,Alpha,Alpha,True,820,2,12225,trainPhase
7,2,B750,Beta,Beta,True,1397,2,12225,trainPhase
8,2,B950,Beta,Beta,True,1127,2,12225,trainPhase
9,2,C1050,Gamma,Gamma,True,840,2,12225,trainPhase
10,2,B550,Beta,Beta,True,1694,2,12225,trainPhase
11,2,A50,Alpha,Alpha,True,851,2,12225,trainPhase
12,2,A150,Alpha,Alpha,True,1125,2,12225,trainPhase
13,2,A250,Alpha,Alpha,True,865,2,12225,trainPhase
14,2,B650,Beta,Beta,True,1095,2,12225,trainPhase
0,3,B850,Beta,Beta,True,3844,2,12225,trainPhase
1,3,C1450,Gamma,Gamma,True,628,2,12225,trainPhase
2,3,B950,Beta,Gamma,False,1142,2,12225,trainPhase
3,3,A350,Alpha,Alpha,True,2101,2,12225,trainPhase
4,3,A250,Alpha,Alpha,True,1693,2,12225,trainPhase
5,3,B550,Beta,Beta,True,874,2,12225,trainPhase
6,3,C1350,Gamma,Gamma,True,654,2,12225,trainPhase
7,3,C1250,Gamma,Gamma,True,600,2,12225,trainPhase
8,3,B750,Beta,Gamma,False,3070,2,12225,trainPhase
9,3,A50,Alpha,Alpha,True,950,2,12225,trainPhase
10,3,A150,Alpha,Alpha,True,1211,2,12225,trainPhase
11,3,C1050,Gamma,Gamma,True,1979,2,12225,trainPhase
12,3,B650,Beta,Beta,True,1302,2,12225,trainPhase
13,3,A450,Alpha,Alpha,True,1982,2,12225,trainPhase
14,3,C1150,Gamma,Gamma,True,866,2,12225,trainPhase
0,4,B750,Beta,Beta,True,1422,2,12225,trainPhase
1,4,C1250,Gamma,Gamma,True,715,2,12225,trainPhase
2,4,A450,Alpha,Beta,False,1077,2,12225,trainPhase
3,4,C1150,Gamma,Gamma,True,1558,2,12225,trainPhase
4,4,A150,Alpha,Alpha,True,883,2,12225,trainPhase
5,4,B550,Beta,Beta,True,1126,2,12225,trainPhase
6,4,B650,Beta,Beta,True,1055,2,12225,trainPhase
7,4,C1050,Gamma,Gamma,True,1498,2,12225,trainPhase
8,4,C1350,Gamma,Gamma,True,2054,2,12225,trainPhase
9,4,A350,Alpha,Alpha,True,2127,2,12225,trainPhase
10,4,C1450,Gamma,Gamma,True,763,2,12225,trainPhase
11,4,B850,Beta,Beta,True,1350,2,12225,trainPhase
12,4,B950,Beta,Beta,True,821,2,12225,trainPhase
13,4,A250,Alpha,Alpha,True,801,2,12225,trainPhase
14,4,A50,Alpha,Alpha,True,913,2,12225,trainPhase
0,0,A50,Alpha,Alpha,True,2386,2,12228,trainPhase
1,0,B750,Beta,Alpha,False,1437,2,12228,trainPhase
2,0,C1450,Gamma,Gamma,True,1350,2,12228,trainPhase
3,0,C1150,Gamma,Gamma,True,1567,2,12228,trainPhase
4,0,B650,Beta,Beta,True,830,2,12228,trainPhase
5,0,C1250,Gamma,Gamma,True,925,2,12228,trainPhase
6,0,A150,Alpha,Alpha,True,1268,2,12228,trainPhase
7,0,B850,Beta,Beta,True,1099,2,12228,trainPhase
8,0,B550,Beta,Beta,True,1701,2,12228,trainPhase
9,0,B950,Beta,Gamma,False,1187,2,12228,trainPhase
10,0,C1050,Gamma,Gamma,True,1098,2,12228,trainPhase
11,0,A450,Alpha,Beta,False,821,2,12228,trainPhase
12,0,A350,Alpha,Beta,False,2468,2,12228,trainPhase
13,0,A250,Alpha,Alpha,True,917,2,12228,trainPhase
14,0,C1350,Gamma,Gamma,True,950,2,12228,trainPhase
0,1,A150,Alpha,Alpha,True,1701,2,12228,trainPhase
1,1,B550,Beta,Alpha,False,1944,2,12228,trainPhase
2,1,A450,Alpha,Alpha,True,997,2,12228,trainPhase
3,1,A250,Alpha,Alpha,True,1021,2,12228,trainPhase
4,1,B950,Beta,Beta,True,2133,2,12228,trainPhase
5,1,C1350,Gamma,Gamma,True,1205,2,12228,trainPhase
6,1,B850,Beta,Beta,True,1618,2,12228,trainPhase
7,1,C1050,Gamma,Beta,False,1461,2,12228,trainPhase
8,1,B650,Beta,Beta,True,1291,2,12228,trainPhase
9,1,A50,Alpha,Alpha,True,1014,2,12228,trainPhase
10,1,C1250,Gamma,Gamma,True,1453,2,12228,trainPhase
11,1,C1150,Gamma,Gamma,True,1274,2,12228,trainPhase
12,1,A350,Alpha,Alpha,True,1162,2,12228,trainPhase
13,1,B750,Beta,Beta,True,1365,2,12228,trainPhase
14,1,C1450,Gamma,Gamma,True,1363,2,12228,trainPhase
0,2,B750,Beta,Beta,True,2845,2,12228,trainPhase
1,2,A350,Alpha,Alpha,True,2038,2,12228,trainPhase
2,2,C1050,Gamma,Beta,False,1326,2,12228,trainPhase
3,2,B950,Beta,Beta,True,828,2,12228,trainPhase
4,2,C1350,Gamma,Gamma,True,926,2,12228,trainPhase
5,2,B550,Beta,Beta,True,2653,2,12228,trainPhase
6,2,C1150,Gamma,Gamma,True,8794,2,12228,trainPhase
7,2,A450,Alpha,Beta,False,4426,2,12228,trainPhase
8,2,B650,Beta,Beta,True,2149,2,12228,trainPhase
9,2,A150,Alpha,Alpha,True,1325,2,12228,trainPhase
10,2,A50,Alpha,Alpha,True,759,2,12228,trainPhase
11,2,C1450,Gamma,Gamma,True,982,2,12228,trainPhase
12,2,A250,Alpha,Alpha,True,1389,2,12228,trainPhase
13,2,B850,Beta,Beta,True,924,2,12228,trainPhase
14,2,C1250,Gamma,Gamma,True,1111,2,12228,trainPhase
0,3,C1150,Gamma,Gamma,True,2342,2,12228,trainPhase
1,3,C1250,Gamma,Gamma,True,860,2,12228,trainPhase
2,3,A350,Alpha,Alpha,True,2396,2,12228,trainPhase
3,3,A250,Alpha,Alpha,True,765,2,12228,trainPhase
4,3,B650,Beta,Beta,True,766,2,12228,trainPhase
5,3,A50,Alpha,Alpha,True,709,2,12228,trainPhase
6,3,C1450,Gamma,Gamma,True,845,2,12228,trainPhase
7,3,A450,Alpha,Beta,False,3486,2,12228,trainPhase
8,3,B750,Beta,Beta,True,2212,2,12228,trainPhase
9,3,C1050,Gamma,Gamma,True,2172,2,12228,trainPhase
10,3,B550,Beta,Beta,True,1509,2,12228,trainPhase
11,3,C1350,Gamma,Gamma,True,1238,2,12228,trainPhase
12,3,B850,Beta,Beta,True,2573,2,12228,trainPhase
13,3,A150,Alpha,Alpha,True,902,2,12228,trainPhase
14,3,B950,Beta,Gamma,False,2022,2,12228,trainPhase
0,4,B650,Beta,Beta,True,1837,2,12228,trainPhase
1,4,C1150,Gamma,Gamma,True,1084,2,12228,trainPhase
2,4,C1050,Gamma,Beta,False,1788,2,12228,trainPhase
3,4,A350,Alpha,Alpha,True,2102,2,12228,trainPhase
4,4,A250,Alpha,Alpha,True,1110,2,12228,trainPhase
5,4,B550,Beta,Beta,True,1422,2,12228,trainPhase
6,4,A50,Alpha,Alpha,True,798,2,12228,trainPhase
7,4,A150,Alpha,Alpha,True,1750,2,12228,trainPhase
8,4,B750,Beta,Gamma,False,1925,2,12228,trainPhase
9,4,C1350,Gamma,Gamma,True,2740,2,12228,trainPhase
10,4,A450,Alpha,Beta,False,2750,2,12228,trainPhase
11,4,B850,Beta,Gamma,False,1453,2,12228,trainPhase
12,4,C1250,Gamma,Gamma,True,885,2,12228,trainPhase
13,4,C1450,Gamma,Gamma,True,996,2,12228,trainPhase
14,4,B950,Beta,Gamma,False,6932,2,12228,trainPhase
0,0,A350,Alpha,Alpha,True,4961,2,12250,trainPhase
1,0,B650,Beta,Alpha,False,2988,2,12250,trainPhase
2,0,B950,Beta,Gamma,False,3309,2,12250,trainPhase
3,0,B550,Beta,Alpha,False,2157,2,12250,trainPhase
4,0,B850,Beta,Beta,True,1333,2,12250,trainPhase
5,0,B750,Beta,Beta,True,1261,2,12250,trainPhase
6,0,C1250,Gamma,Gamma,True,1920,2,12250,trainPhase
7,0,C1450,Gamma,Gamma,True,933,2,12250,trainPhase
8,0,C1150,Gamma,Gamma,True,2558,2,12250,trainPhase
9,0,A50,Alpha,Alpha,True,1172,2,12250,trainPhase
10,0,C1050,Gamma,Beta,False,2021,2,12250,trainPhase
11,0,A450,Alpha,Beta,False,1205,2,12250,trainPhase
12,0,A250,Alpha,Alpha,True,1213,2,12250,trainPhase
13,0,C1350,Gamma,Gamma,True,1086,2,12250,trainPhase
14,0,A150,Alpha,Alpha,True,1118,2,12250,trainPhase
0,1,B950,Beta,Beta,True,1461,2,12250,trainPhase
1,1,B850,Beta,Beta,True,1277,2,12250,trainPhase
2,1,A250,Alpha,Alpha,True,1565,2,12250,trainPhase
3,1,A450,Alpha,Alpha,True,3949,2,12250,trainPhase
4,1,A50,Alpha,Alpha,True,1085,2,12250,trainPhase
5,1,C1050,Gamma,Gamma,True,4525,2,12250,trainPhase
6,1,C1450,Gamma,Gamma,True,976,2,12250,trainPhase
7,1,C1250,Gamma,Gamma,True,1181,2,12250,trainPhase
8,1,B750,Beta,Beta,True,1892,2,12250,trainPhase
9,1,C1150,Gamma,Gamma,True,1398,2,12250,trainPhase
10,1,A350,Alpha,Alpha,True,1428,2,12250,trainPhase
11,1,C1350,Gamma,Gamma,True,942,2,12250,trainPhase
12,1,B550,Beta,Alpha,False,1189,2,12250,trainPhase
13,1,B650,Beta,Beta,True,1457,2,12250,trainPhase
14,1,A150,Alpha,Alpha,True,926,2,12250,trainPhase
0,2,B650,Beta,Beta,True,1482,2,12250,trainPhase
1,2,C1350,Gamma,Gamma,True,786,2,12250,trainPhase
2,2,A350,Alpha,Alpha,True,1966,2,12250,trainPhase
3,2,A450,Alpha,Alpha,True,3869,2,12250,trainPhase
4,2,B950,Beta,Beta,True,4069,2,12250,trainPhase
5,2,A50,Alpha,Alpha,True,945,2,12250,trainPhase
6,2,B750,Beta,Beta,True,1748,2,12250,trainPhase
7,2,C1450,Gamma,Gamma,True,1045,2,12250,trainPhase
8,2,C1150,Gamma,Gamma,True,1783,2,12250,trainPhase
9,2,C1250,Gamma,Gamma,True,813,2,12250,trainPhase
10,2,A250,Alpha,Alpha,True,1327,2,12250,trainPhase
11,2,C1050,Gamma,Gamma,True,2517,2,12250,trainPhase
12,2,B850,Beta,Beta,True,1374,2,12250,trainPhase
13,2,A150,Alpha,Alpha,True,854,2,12250,trainPhase
14,2,B550,Beta,Alpha,False,1239,2,12250,trainPhase
0,3,B750,Beta,Alpha,False,1335,2,12250,trainPhase
1,3,C1250,Gamma,Gamma,True,1215,2,12250,trainPhase
2,3,C1050,Gamma,Gamma,True,2360,2,12250,trainPhase
3,3,A50,Alpha,Alpha,True,2637,2,12250,trainPhase
4,3,B550,Beta,Beta,True,3986,2,12250,trainPhase
5,3,C1150,Gamma,Gamma,True,1174,2,12250,trainPhase
6,3,A450,Alpha,Alpha,True,1406,2,12250,trainPhase
7,3,A150,Alpha,Alpha,True,1020,2,12250,trainPhase
8,3,A350,Alpha,Alpha,True,768,2,12250,trainPhase
9,3,C1350,Gamma,Gamma,True,725,2,12250,trainPhase
10,3,B650,Beta,Beta,True,1190,2,12250,trainPhase
11,3,B850,Beta,Beta,True,2405,2,12250,trainPhase
12,3,A250,Alpha,Alpha,True,2862,2,12250,trainPhase
13,3,C1450,Gamma,Gamma,True,3049,2,12250,trainPhase
14,3,B950,Beta,Beta,True,1258,2,12250,trainPhase
0,4,B550,Beta,Beta,True,2239,2,12250,trainPhase
1,4,C1350,Gamma,Gamma,True,902,2,12250,trainPhase
2,4,A50,Alpha,Alpha,True,814,2,12250,trainPhase
3,4,C1050,Gamma,Gamma,True,3319,2,12250,trainPhase
4,4,A250,Alpha,Alpha,True,1179,2,12250,trainPhase
5,4,C1150,Gamma,Gamma,True,1384,2,12250,trainPhase
6,4,A450,Alpha,Beta,False,802,2,12250,trainPhase
7,4,C1450,Gamma,Gamma,True,1486,2,12250,trainPhase
8,4,B950,Beta,Beta,True,938,2,12250,trainPhase
9,4,A350,Alpha,Alpha,True,965,2,12250,trainPhase
10,4,A150,Alpha,Alpha,True,757,2,12250,trainPhase
11,4,B650,Beta,Beta,True,1397,2,12250,trainPhase
12,4,C1250,Gamma,Gamma,True,1038,2,12250,trainPhase
13,4,B750,Beta,Beta,True,4256,2,12250,trainPhase
14,4,B850,Beta,Beta,True,1173,2,12250,trainPhase
0,0,B550,Beta,Beta,True,3908,2,12253,trainPhase
1,0,C1250,Gamma,Gamma,True,1900,2,12253,trainPhase
2,0,B750,Beta,Beta,True,1606,2,12253,trainPhase
3,0,B950,Beta,Gamma,False,1125,2,12253,trainPhase
4,0,A50,Alpha,Alpha,True,1399,2,12253,trainPhase
5,0,A450,Alpha,Alpha,True,1510,2,12253,trainPhase
6,0,A150,Alpha,Alpha,True,1384,2,12253,trainPhase
7,0,C1450,Gamma,Gamma,True,1530,2,12253,trainPhase
8,0,B650,Beta,Beta,True,1157,2,12253,trainPhase
9,0,A350,Alpha,Alpha,True,1190,2,12253,trainPhase
10,0,A250,Alpha,Alpha,True,972,2,12253,trainPhase
11,0,B850,Beta,Gamma,False,2685,2,12253,trainPhase
12,0,C1150,Gamma,Gamma,True,966,2,12253,trainPhase
13,0,C1050,Gamma,Gamma,True,919,2,12253,trainPhase
14,0,C1350,Gamma,Gamma,True,814,2,12253,trainPhase
0,1,A250,Alpha,Alpha,True,1357,2,12253,trainPhase
1,1,C1050,Gamma,Beta,False,971,2,12253,trainPhase
2,1,B950,Beta,Gamma,False,1036,2,12253,trainPhase
3,1,C1250,Gamma,Gamma,True,917,2,12253,trainPhase
4,1,B850,Beta,Gamma,False,3813,2,12253,trainPhase
5,1,B750,Beta,Gamma,False,3805,2,12253,trainPhase
6,1,A350,Alpha,Alpha,True,1048,2,12253,trainPhase
7,1,A450,Alpha,Alpha,True,1647,2,12253,trainPhase
8,1,C1150,Gamma,Gamma,True,2397,2,12253,trainPhase
9,1,A150,Alpha,Alpha,True,1547,2,12253,trainPhase
10,1,B650,Beta,Beta,True,2247,2,12253,trainPhase
11,1,A50,Alpha,Alpha,True,908,2,12253,trainPhase
12,1,C1450,Gamma,Gamma,True,1212,2,12253,trainPhase
13,1,C1350,Gamma,Gamma,True,894,2,12253,trainPhase
14,1,B550,Beta,Beta,True,901,2,12253,trainPhase
0,2,C1050,Gamma,Gamma,True,941,2,12253,trainPhase
1,2,A350,Alpha,Beta,False,731,2,12253,trainPhase
2,2,B650,Beta,Beta,True,700,2,12253,trainPhase
3,2,C1350,Gamma,Gamma,True,963,2,12253,trainPhase
4,2,B950,Beta,Gamma,False,1066,2,12253,trainPhase
5,2,C1250,Gamma,Gamma,True,871,2,12253,trainPhase
6,2,B550,Beta,Beta,True,2245,2,12253,trainPhase
7,2,A250,Alpha,Alpha,True,861,2,12253,trainPhase
8,2,B850,Beta,Gamma,False,1910,2,12253,trainPhase
9,2,C1450,Gamma,Gamma,True,1117,2,12253,trainPhase
10,2,A450,Alpha,Beta,False,1221,2,12253,trainPhase
11,2,A150,Alpha,Alpha,True,963,2,12253,trainPhase
12,2,A50,Alpha,Alpha,True,864,2,12253,trainPhase
13,2,C1150,Gamma,Gamma,True,1585,2,12253,trainPhase
14,2,B750,Beta,Beta,True,846,2,12253,trainPhase
0,3,C1250,Gamma,Gamma,True,790,2,12253,trainPhase
1,3,A50,Alpha,Alpha,True,878,2,12253,trainPhase
2,3,A450,Alpha,Alpha,True,1893,2,12253,trainPhase
3,3,A150,Alpha,Alpha,True,781,2,12253,trainPhase
4,3,C1350,Gamma,Gamma,True,958,2,12253,trainPhase
5,3,B750,Beta,Beta,True,1035,2,12253,trainPhase
6,3,B950,Beta,Gamma,False,1661,2,12253,trainPhase
7,3,B550,Beta,Beta,True,882,2,12253,trainPhase
8,3,C1450,Gamma,Gamma,True,805,2,12253,trainPhase
9,3,C1150,Gamma,Gamma,True,919,2,12253,trainPhase
10,3,C1050,Gamma,Gamma,True,1797,2,12253,trainPhase
11,3,A350,Alpha,Alpha,True,985,2,12253,trainPhase
12,3,A250,Alpha,Alpha,True,781,2,12253,trainPhase
13,3,B650,Beta,Beta,True,1166,2,12253,trainPhase
14,3,B850,Beta,Beta,True,724,2,12253,trainPhase
0,4,C1150,Gamma,Gamma,True,962,2,12253,trainPhase
1,4,B850,Beta,Gamma,False,1019,2,12253,trainPhase
2,4,A150,Alpha,Alpha,True,926,2,12253,trainPhase
3,4,C1350,Gamma,Gamma,True,1086,2,12253,trainPhase
4,4,C1050,Gamma,Gamma,True,1461,2,12253,trainPhase
5,4,A350,Alpha,Beta,False,998,2,12253,trainPhase
6,4,A450,Alpha,Beta,False,717,2,12253,trainPhase
7,4,B950,Beta,Gamma,False,917,2,12253,trainPhase
8,4,B650,Beta,Beta,True,2017,2,12253,trainPhase
9,4,B550,Beta,Alpha,False,1199,2,12253,trainPhase
10,4,C1250,Gamma,Gamma,True,846,2,12253,trainPhase
11,4,C1450,Gamma,Gamma,True,766,2,12253,trainPhase
12,4,A250,Alpha,Alpha,True,914,2,12253,trainPhase
13,4,A50,Alpha,Alpha,True,884,2,12253,trainPhase
14,4,B750,Beta,Beta,True,1116,2,12253,trainPhase
0,0,C1350,Gamma,Beta,False,10431,2,12137,trainPhase
1,0,A50,Alpha,Alpha,True,2331,2,12137,trainPhase
2,0,A150,Alpha,Alpha,True,1212,2,12137,trainPhase
3,0,C1150,Gamma,Gamma,True,1950,2,12137,trainPhase
4,0,A450,Alpha,Alpha,True,5277,2,12137,trainPhase
5,0,C1250,Gamma,Gamma,True,1970,2,12137,trainPhase
6,0,A350,Alpha,Alpha,True,1589,2,12137,trainPhase
7,0,B650,Beta,Alpha,False,4550,2,12137,trainPhase
8,0,B950,Beta,Gamma,False,1678,2,12137,trainPhase
9,0,B750,Beta,Beta,True,1397,2,12137,trainPhase
10,0,B850,Beta,Beta,True,1232,2,12137,trainPhase
11,0,B550,Beta,Beta,True,1404,2,12137,trainPhase
12,0,C1450,Gamma,Gamma,True,1128,2,12137,trainPhase
13,0,C1050,Gamma,Beta,False,2993,2,12137,trainPhase
14,0,A250,Alpha,Alpha,True,1332,2,12137,trainPhase
0,1,B950,Beta,Beta,True,3387,2,12137,trainPhase
1,1,A150,Alpha,Alpha,True,795,2,12137,trainPhase
2,1,C1450,Gamma,Gamma,True,996,2,12137,trainPhase
3,1,B650,Beta,Beta,True,1381,2,12137,trainPhase
4,1,C1050,Gamma,Gamma,True,1801,2,12137,trainPhase
5,1,C1250,Gamma,Gamma,True,1605,2,12137,trainPhase
6,1,A250,Alpha,Alpha,True,1458,2,12137,trainPhase
7,1,C1350,Gamma,Gamma,True,1293,2,12137,trainPhase
8,1,B550,Beta,Beta,True,1506,2,12137,trainPhase
9,1,A50,Alpha,Alpha,True,1492,2,12137,trainPhase
10,1,A350,Alpha,Alpha,True,9748,2,12137,trainPhase
11,1,A450,Alpha,Alpha,True,679,2,12137,trainPhase
12,1,B850,Beta,Beta,True,798,2,12137,trainPhase
13,1,B750,Beta,Beta,True,868,2,12137,trainPhase
14,1,C1150,Gamma,Gamma,True,926,2,12137,trainPhase
0,2,B750,Beta,Gamma,False,2838,2,12137,trainPhase
1,2,B950,Beta,Gamma,False,2621,2,12137,trainPhase
2,2,A150,Alpha,Alpha,True,799,2,12137,trainPhase
3,2,B550,Beta,Beta,True,2844,2,12137,trainPhase
4,2,A50,Alpha,Alpha,True,1012,2,12137,trainPhase
5,2,C1350,Gamma,Gamma,True,777,2,12137,trainPhase
6,2,A350,Alpha,Alpha,True,862,2,12137,trainPhase
7,2,A450,Alpha,Alpha,True,849,2,12137,trainPhase
8,2,C1450,Gamma,Gamma,True,766,2,12137,trainPhase
9,2,C1150,Gamma,Gamma,True,4349,2,12137,trainPhase
10,2,C1250,Gamma,Gamma,True,902,2,12137,trainPhase
11,2,C1050,Gamma,Gamma,True,822,2,12137,trainPhase
12,2,A250,Alpha,Alpha,True,845,2,12137,trainPhase
13,2,B850,Beta,Beta,True,1687,2,12137,trainPhase
14,2,B650,Beta,Beta,True,894,2,12137,trainPhase
0,3,A350,Alpha,Alpha,True,667,2,12137,trainPhase
1,3,B850,Beta,Beta,True,919,2,12137,trainPhase
2,3,B750,Beta,Beta,True,950,2,12137,trainPhase
3,3,C1450,Gamma,Gamma,True,1086,2,12137,trainPhase
4,3,A150,Alpha,Alpha,True,684,2,12137,trainPhase
5,3,C1050,Gamma,Beta,False,764,2,12137,trainPhase
6,3,A250,Alpha,Alpha,True,949,2,12137,trainPhase
7,3,B950,Beta,Beta,True,1253,2,12137,trainPhase
8,3,A50,Alpha,Alpha,True,788,2,12137,trainPhase
9,3,A450,Alpha,Alpha,True,1336,2,12137,trainPhase
10,3,C1250,Gamma,Gamma,True,2688,2,12137,trainPhase
11,3,C1350,Gamma,Gamma,True,758,2,12137,trainPhase
12,3,B550,Beta,Beta,True,1101,2,12137,trainPhase
13,3,C1150,Gamma,Gamma,True,1454,2,12137,trainPhase
14,3,B650,Beta,Beta,True,2390,2,12137,trainPhase
0,4,C1350,Gamma,Gamma,True,980,2,12137,trainPhase
1,4,B750,Beta,Beta,True,2494,2,12137,trainPhase
2,4,A50,Alpha,Alpha,True,811,2,12137,trainPhase
3,4,A450,Alpha,Beta,False,2220,2,12137,trainPhase
4,4,C1050,Gamma,Beta,False,6675,2,12137,trainPhase
5,4,C1450,Gamma,Gamma,True,854,2,12137,trainPhase
6,4,C1250,Gamma,Gamma,True,3365,2,12137,trainPhase
7,4,A350,Alpha,Alpha,True,772,2,12137,trainPhase
8,4,A150,Alpha,Alpha,True,904,2,12137,trainPhase
9,4,B550,Beta,Beta,True,1791,2,12137,trainPhase
10,4,B650,Beta,Beta,True,1906,2,12137,trainPhase
11,4,B950,Beta,Beta,True,3444,2,12137,trainPhase
12,4,A250,Alpha,Alpha,True,2793,2,12137,trainPhase
13,4,B850,Beta,Beta,True,966,2,12137,trainPhase
14,4,C1150,Gamma,Gamma,True,1165,2,12137,trainPhase
0,0,A350,Alpha,Alpha,True,2551,2,12256,trainPhase
1,0,C1150,Gamma,Alpha,False,5515,2,12256,trainPhase
2,0,C1350,Gamma,Gamma,True,1514,2,12256,trainPhase
3,0,B650,Beta,Beta,True,1011,2,12256,trainPhase
4,0,A50,Alpha,Alpha,True,1331,2,12256,trainPhase
5,0,C1450,Gamma,Gamma,True,1246,2,12256,trainPhase
6,0,B850,Beta,Beta,True,1385,2,12256,trainPhase
7,0,A450,Alpha,Alpha,True,920,2,12256,trainPhase
8,0,B950,Beta,Beta,True,1652,2,12256,trainPhase
9,0,A150,Alpha,Alpha,True,1093,2,12256,trainPhase
10,0,B550,Beta,Beta,True,965,2,12256,trainPhase
11,0,B750,Beta,Beta,True,1189,2,12256,trainPhase
12,0,C1250,Gamma,Gamma,True,884,2,12256,trainPhase
13,0,A250,Alpha,Alpha,True,1053,2,12256,trainPhase
14,0,C1050,Gamma,Gamma,True,864,2,12256,trainPhase
0,1,A350,Alpha,Beta,False,774,2,12256,trainPhase
1,1,A250,Alpha,Alpha,True,1101,2,12256,trainPhase
2,1,A150,Alpha,Alpha,True,861,2,12256,trainPhase
3,1,B750,Beta,Beta,True,1429,2,12256,trainPhase
4,1,C1450,Gamma,Gamma,True,998,2,12256,trainPhase
5,1,B850,Beta,Beta,True,983,2,12256,trainPhase
6,1,C1350,Gamma,Gamma,True,997,2,12256,trainPhase
7,1,C1250,Gamma,Gamma,True,871,2,12256,trainPhase
8,1,B650,Beta,Beta,True,625,2,12256,trainPhase
9,1,C1150,Gamma,Gamma,True,1014,2,12256,trainPhase
10,1,A450,Alpha,Alpha,True,1067,2,12256,trainPhase
11,1,C1050,Gamma,Beta,False,797,2,12256,trainPhase
12,1,B550,Beta,Alpha,False,1925,2,12256,trainPhase
13,1,A50,Alpha,Alpha,True,860,2,12256,trainPhase
14,1,B950,Beta,Beta,True,1936,2,12256,trainPhase
0,2,C1250,Gamma,Gamma,True,911,2,12256,trainPhase
1,2,C1450,Gamma,Gamma,True,862,2,12256,trainPhase
2,2,A150,Alpha,Alpha,True,1205,2,12256,trainPhase
3,2,A50,Alpha,Alpha,True,901,2,12256,trainPhase
4,2,B550,Beta,Beta,True,1924,2,12256,trainPhase
5,2,B850,Beta,Gamma,False,996,2,12256,trainPhase
6,2,C1350,Gamma,Gamma,True,859,2,12256,trainPhase
7,2,B750,Beta,Beta,True,597,2,12256,trainPhase
8,2,A250,Alpha,Alpha,True,729,2,12256,trainPhase
9,2,C1150,Gamma,Gamma,True,789,2,12256,trainPhase
10,2,B650,Beta,Beta,True,1302,2,12256,trainPhase
11,2,A450,Alpha,Alpha,True,928,2,12256,trainPhase
12,2,A350,Alpha,Alpha,True,1009,2,12256,trainPhase
13,2,C1050,Gamma,Gamma,True,1316,2,12256,trainPhase
14,2,B950,Beta,Gamma,False,718,2,12256,trainPhase
0,3,C1250,Gamma,Gamma,True,1154,2,12256,trainPhase
1,3,A50,Alpha,Alpha,True,834,2,12256,trainPhase
2,3,A350,Alpha,Alpha,True,942,2,12256,trainPhase
3,3,A250,Alpha,Alpha,True,894,2,12256,trainPhase
4,3,B750,Beta,Beta,True,1141,2,12256,trainPhase
5,3,C1450,Gamma,Gamma,True,590,2,12256,trainPhase
6,3,C1050,Gamma,Gamma,True,822,2,12256,trainPhase
7,3,A150,Alpha,Alpha,True,781,2,12256,trainPhase
8,3,A450,Alpha,Beta,False,1702,2,12256,trainPhase
9,3,B550,Beta,Alpha,False,1096,2,12256,trainPhase
10,3,C1150,Gamma,Gamma,True,790,2,12256,trainPhase
11,3,C1350,Gamma,Gamma,True,734,2,12256,trainPhase
12,3,B950,Beta,Beta,True,934,2,12256,trainPhase
13,3,B850,Beta,Beta,True,550,2,12256,trainPhase
14,3,B650,Beta,Beta,True,1285,2,12256,trainPhase
0,4,B750,Beta,Beta,True,838,2,12256,trainPhase
1,4,A450,Alpha,Beta,False,741,2,12256,trainPhase
2,4,C1450,Gamma,Gamma,True,821,2,12256,trainPhase
3,4,B850,Beta,Gamma,False,645,2,12256,trainPhase
4,4,C1250,Gamma,Gamma,True,888,2,12256,trainPhase
5,4,B550,Beta,Beta,True,664,2,12256,trainPhase
6,4,C1350,Gamma,Gamma,True,1435,2,12256,trainPhase
7,4,A150,Alpha,Alpha,True,813,2,12256,trainPhase
8,4,B950,Beta,Gamma,False,1350,2,12256,trainPhase
9,4,A50,Alpha,Alpha,True,839,2,12256,trainPhase
10,4,A250,Alpha,Alpha,True,839,2,12256,trainPhase
11,4,C1050,Gamma,Beta,False,501,2,12256,trainPhase
12,4,C1150,Gamma,Gamma,True,680,2,12256,trainPhase
13,4,B650,Beta,Beta,True,574,2,12256,trainPhase
14,4,A350,Alpha,Alpha,True,837,2,12256,trainPhase
0,0,A450,Alpha,Alpha,True,2307,2,12273,trainPhase
1,0,C1150,Gamma,Beta,False,1887,2,12273,trainPhase
2,0,B750,Beta,Beta,True,1613,2,12273,trainPhase
3,0,C1350,Gamma,Gamma,True,1458,2,12273,trainPhase
4,0,A350,Alpha,Alpha,True,1536,2,12273,trainPhase
5,0,B550,Beta,Beta,True,1270,2,12273,trainPhase
6,0,A50,Alpha,Alpha,True,1562,2,12273,trainPhase
7,0,B850,Beta,Beta,True,1366,2,12273,trainPhase
8,0,C1250,Gamma,Gamma,True,1167,2,12273,trainPhase
9,0,A250,Alpha,Alpha,True,1582,2,12273,trainPhase
10,0,B650,Beta,Beta,True,1319,2,12273,trainPhase
11,0,C1050,Gamma,Beta,False,1157,2,12273,trainPhase
12,0,C1450,Gamma,Gamma,True,1682,2,12273,trainPhase
13,0,B950,Beta,Beta,True,1355,2,12273,trainPhase
14,0,A150,Alpha,Alpha,True,1230,2,12273,trainPhase
0,1,B550,Beta,Alpha,False,1351,2,12273,trainPhase
1,1,A350,Alpha,Alpha,True,1582,2,12273,trainPhase
2,1,C1150,Gamma,Gamma,True,2136,2,12273,trainPhase
3,1,C1250,Gamma,Gamma,True,1153,2,12273,trainPhase
4,1,B850,Beta,Beta,True,952,2,12273,trainPhase
5,1,B750,Beta,Beta,True,1111,2,12273,trainPhase
6,1,B950,Beta,Beta,True,2670,2,12273,trainPhase
7,1,A150,Alpha,Alpha,True,1226,2,12273,trainPhase
8,1,A450,Alpha,Alpha,True,1426,2,12273,trainPhase
9,1,C1350,Gamma,Gamma,True,1277,2,12273,trainPhase
10,1,B650,Beta,Beta,True,908,2,12273,trainPhase
11,1,A50,Alpha,Alpha,True,1037,2,12273,trainPhase
12,1,C1050,Gamma,Beta,False,1174,2,12273,trainPhase
13,1,C1450,Gamma,Gamma,True,1181,2,12273,trainPhase
14,1,A250,Alpha,Alpha,True,1038,2,12273,trainPhase
0,2,C1150,Gamma,Gamma,True,1301,2,12273,trainPhase
1,2,B550,Beta,Beta,True,1549,2,12273,trainPhase
2,2,B850,Beta,Gamma,False,1211,2,12273,trainPhase
3,2,B750,Beta,Beta,True,877,2,12273,trainPhase
4,2,A450,Alpha,Alpha,True,1605,2,12273,trainPhase
5,2,C1050,Gamma,Gamma,True,1311,2,12273,trainPhase
6,2,A50,Alpha,Alpha,True,1080,2,12273,trainPhase
7,2,C1250,Gamma,Gamma,True,1264,2,12273,trainPhase
8,2,A250,Alpha,Alpha,True,1310,2,12273,trainPhase
9,2,A150,Alpha,Alpha,True,1214,2,12273,trainPhase
10,2,C1450,Gamma,Gamma,True,2037,2,12273,trainPhase
11,2,B950,Beta,Beta,True,1415,2,12273,trainPhase
12,2,B650,Beta,Beta,True,1611,2,12273,trainPhase
13,2,C1350,Gamma,Gamma,True,1292,2,12273,trainPhase
14,2,A350,Alpha,Alpha,True,1504,2,12273,trainPhase
0,3,A350,Alpha,Alpha,True,1182,2,12273,trainPhase
1,3,C1150,Gamma,Gamma,True,1928,2,12273,trainPhase
2,3,C1250,Gamma,Beta,False,1842,2,12273,trainPhase
3,3,A150,Alpha,Alpha,True,1965,2,12273,trainPhase
4,3,A250,Alpha,Alpha,True,1582,2,12273,trainPhase
5,3,C1450,Gamma,Gamma,True,1294,2,12273,trainPhase
6,3,B650,Beta,Beta,True,901,2,12273,trainPhase
7,3,B550,Beta,Beta,True,1038,2,12273,trainPhase
8,3,B850,Beta,Gamma,False,1170,2,12273,trainPhase
9,3,C1350,Gamma,Gamma,True,1101,2,12273,trainPhase
10,3,C1050,Gamma,Gamma,True,1411,2,12273,trainPhase
11,3,B950,Beta,Gamma,False,1495,2,12273,trainPhase
12,3,A50,Alpha,Alpha,True,1841,2,12273,trainPhase
13,3,A450,Alpha,Alpha,True,1414,2,12273,trainPhase
14,3,B750,Beta,Beta,True,854,2,12273,trainPhase
0,4,C1050,Gamma,Gamma,True,996,2,12273,trainPhase
1,4,B750,Beta,Beta,True,1198,2,12273,trainPhase
2,4,B650,Beta,Beta,True,1042,2,12273,trainPhase
3,4,A350,Alpha,Alpha,True,1098,2,12273,trainPhase
4,4,A250,Alpha,Alpha,True,1061,2,12273,trainPhase
5,4,C1450,Gamma,Gamma,True,2040,2,12273,trainPhase
6,4,A150,Alpha,Alpha,True,1287,2,12273,trainPhase
7,4,C1250,Gamma,Gamma,True,1342,2,12273,trainPhase
8,4,A50,Alpha,Alpha,True,1144,2,12273,trainPhase
9,4,C1350,Gamma,Gamma,True,1277,2,12273,trainPhase
10,4,A450,Alpha,Beta,False,1116,2,12273,trainPhase
11,4,B550,Beta,Beta,True,1404,2,12273,trainPhase
12,4,B950,Beta,Gamma,False,1972,2,12273,trainPhase
13,4,B850,Beta,Beta,True,924,2,12273,trainPhase
14,4,C1150,Gamma,Gamma,True,1285,2,12273,trainPhase
0,0,B950,Beta,Beta,True,13889,2,12276,trainPhase
1,0,C1350,Gamma,Gamma,True,1453,2,12276,trainPhase
2,0,C1050,Gamma,Gamma,True,1383,2,12276,trainPhase
3,0,C1150,Gamma,Gamma,True,1144,2,12276,trainPhase
4,0,A350,Alpha,Alpha,True,2769,2,12276,trainPhase
5,0,C1450,Gamma,Gamma,True,1189,2,12276,trainPhase
6,0,A150,Alpha,Alpha,True,1535,2,12276,trainPhase
7,0,B750,Beta,Beta,True,1725,2,12276,trainPhase
8,0,A250,Alpha,Alpha,True,1405,2,12276,trainPhase
9,0,A50,Alpha,Alpha,True,866,2,12276,trainPhase
10,0,B650,Beta,Beta,True,1299,2,12276,trainPhase
11,0,B550,Beta,Beta,True,1609,2,12276,trainPhase
12,0,A450,Alpha,Beta,False,905,2,12276,trainPhase
13,0,C1250,Gamma,Gamma,True,1246,2,12276,trainPhase
14,0,B850,Beta,Gamma,False,925,2,12276,trainPhase
0,1,A50,Alpha,Alpha,True,1083,2,12276,trainPhase
1,1,C1250,Gamma,Gamma,True,1088,2,12276,trainPhase
2,1,C1150,Gamma,Gamma,True,751,2,12276,trainPhase
3,1,B950,Beta,Gamma,False,1033,2,12276,trainPhase
4,1,B650,Beta,Beta,True,2271,2,12276,trainPhase
5,1,B550,Beta,Beta,True,757,2,12276,trainPhase
6,1,B850,Beta,Beta,True,1725,2,12276,trainPhase
7,1,A350,Alpha,Alpha,True,1180,2,12276,trainPhase
8,1,C1050,Gamma,Beta,False,1077,2,12276,trainPhase
9,1,C1350,Gamma,Gamma,True,1227,2,12276,trainPhase
10,1,A450,Alpha,Beta,False,987,2,12276,trainPhase
11,1,A150,Alpha,Alpha,True,1688,2,12276,trainPhase
12,1,B750,Beta,Beta,True,1242,2,12276,trainPhase
13,1,C1450,Gamma,Gamma,True,782,2,12276,trainPhase
14,1,A250,Alpha,Alpha,True,1164,2,12276,trainPhase
0,2,A450,Alpha,Alpha,True,644,2,12276,trainPhase
1,2,C1350,Gamma,Gamma,True,915,2,12276,trainPhase
2,2,A350,Alpha,Alpha,True,2591,2,12276,trainPhase
3,2,C1250,Gamma,Gamma,True,1446,2,12276,trainPhase
4,2,B950,Beta,Beta,True,1507,2,12276,trainPhase
5,2,B550,Beta,Beta,True,1325,2,12276,trainPhase
6,2,A150,Alpha,Alpha,True,822,2,12276,trainPhase
7,2,C1150,Gamma,Gamma,True,1226,2,12276,trainPhase
8,2,B850,Beta,Beta,True,2922,2,12276,trainPhase
9,2,C1450,Gamma,Gamma,True,843,2,12276,trainPhase
10,2,A250,Alpha,Alpha,True,928,2,12276,trainPhase
11,2,B750,Beta,Beta,True,1021,2,12276,trainPhase
12,2,C1050,Gamma,Beta,False,1430,2,12276,trainPhase
13,2,A50,Alpha,Alpha,True,1062,2,12276,trainPhase
14,2,B650,Beta,Beta,True,1511,2,12276,trainPhase
0,3,A50,Alpha,Alpha,True,1566,2,12276,trainPhase
1,3,B950,Beta,Beta,True,1394,2,12276,trainPhase
2,3,B550,Beta,Beta,True,1419,2,12276,trainPhase
3,3,A150,Alpha,Alpha,True,709,2,12276,trainPhase
4,3,B850,Beta,Beta,True,1270,2,12276,trainPhase
5,3,B750,Beta,Beta,True,1856,2,12276,trainPhase
6,3,C1450,Gamma,Gamma,True,788,2,12276,trainPhase
7,3,C1250,Gamma,Gamma,True,1209,2,12276,trainPhase
8,3,A450,Alpha,Alpha,True,3048,2,12276,trainPhase
9,3,A250,Alpha,Alpha,True,670,2,12276,trainPhase
10,3,C1350,Gamma,Gamma,True,1214,2,12276,trainPhase
11,3,C1050,Gamma,Gamma,True,684,2,12276,trainPhase
12,3,A350,Alpha,Alpha,True,1453,2,12276,trainPhase
13,3,B650,Beta,Beta,True,758,2,12276,trainPhase
14,3,C1150,Gamma,Gamma,True,1942,2,12276,trainPhase
0,4,A50,Alpha,Alpha,True,862,2,12276,trainPhase
1,4,A150,Alpha,Alpha,True,642,2,12276,trainPhase
2,4,A250,Alpha,Alpha,True,514,2,12276,trainPhase
3,4,B850,Beta,Beta,True,1173,2,12276,trainPhase
4,4,C1250,Gamma,Gamma,True,615,2,12276,trainPhase
5,4,C1050,Gamma,Gamma,True,1970,2,12276,trainPhase
6,4,C1150,Gamma,Gamma,True,701,2,12276,trainPhase
7,4,B550,Beta,Beta,True,875,2,12276,trainPhase
8,4,C1450,Gamma,Gamma,True,782,2,12276,trainPhase
9,4,B950,Beta,Gamma,False,725,2,12276,trainPhase
10,4,B750,Beta,Beta,True,957,2,12276,trainPhase
11,4,B650,Beta,Beta,True,501,2,12276,trainPhase
12,4,A450,Alpha,Alpha,True,1603,2,12276,trainPhase
13,4,A350,Alpha,Alpha,True,670,2,12276,trainPhase
14,4,C1350,Gamma,Gamma,True,758,2,12276,trainPhase
0,0,C1450,Gamma,Gamma,True,6192,2,12279,trainPhase
1,0,A50,Alpha,Alpha,True,1260,2,12279,trainPhase
2,0,A250,Alpha,Alpha,True,1263,2,12279,trainPhase
3,0,B950,Beta,Beta,True,1451,2,12279,trainPhase
4,0,A450,Alpha,Alpha,True,1387,2,12279,trainPhase
5,0,C1150,Gamma,Gamma,True,3131,2,12279,trainPhase
6,0,A350,Alpha,Alpha,True,2576,2,12279,trainPhase
7,0,C1050,Gamma,Gamma,True,1215,2,12279,trainPhase
8,0,B750,Beta,Beta,True,817,2,12279,trainPhase
9,0,B850,Beta,Beta,True,9773,2,12279,trainPhase
10,0,B650,Beta,Beta,True,1933,2,12279,trainPhase
11,0,B550,Beta,Alpha,False,2223,2,12279,trainPhase
12,0,C1250,Gamma,Gamma,True,1055,2,12279,trainPhase
13,0,C1350,Gamma,Gamma,True,1134,2,12279,trainPhase
14,0,A150,Alpha,Alpha,True,1140,2,12279,trainPhase
0,1,C1450,Gamma,Gamma,True,892,2,12279,trainPhase
1,1,B550,Beta,Beta,True,1598,2,12279,trainPhase
2,1,A350,Alpha,Alpha,True,1600,2,12279,trainPhase
3,1,B850,Beta,Beta,True,1506,2,12279,trainPhase
4,1,B650,Beta,Beta,True,763,2,12279,trainPhase
5,1,C1250,Gamma,Gamma,True,803,2,12279,trainPhase
6,1,A250,Alpha,Alpha,True,2379,2,12279,trainPhase
7,1,A50,Alpha,Alpha,True,742,2,12279,trainPhase
8,1,C1350,Gamma,Gamma,True,2240,2,12279,trainPhase
9,1,A150,Alpha,Alpha,True,978,2,12279,trainPhase
10,1,C1050,Gamma,Gamma,True,1947,2,12279,trainPhase
11,1,C1150,Gamma,Gamma,True,798,2,12279,trainPhase
12,1,A450,Alpha,Beta,False,1727,2,12279,trainPhase
13,1,B950,Beta,Beta,True,1506,2,12279,trainPhase
14,1,B750,Beta,Beta,True,1763,2,12279,trainPhase
0,2,B850,Beta,Beta,True,999,2,12279,trainPhase
1,2,C1350,Gamma,Gamma,True,742,2,12279,trainPhase
2,2,A450,Alpha,Beta,False,880,2,12279,trainPhase
3,2,A50,Alpha,Alpha,True,791,2,12279,trainPhase
4,2,A350,Alpha,Alpha,True,1285,2,12279,trainPhase
5,2,B950,Beta,Beta,True,1573,2,12279,trainPhase
6,2,C1450,Gamma,Gamma,True,982,2,12279,trainPhase
7,2,B650,Beta,Beta,True,1544,2,12279,trainPhase
8,2,A150,Alpha,Alpha,True,826,2,12279,trainPhase
9,2,B550,Beta,Beta,True,1257,2,12279,trainPhase
10,2,C1050,Gamma,Gamma,True,3117,2,12279,trainPhase
11,2,C1250,Gamma,Gamma,True,879,2,12279,trainPhase
12,2,B750,Beta,Gamma,False,2078,2,12279,trainPhase
13,2,A250,Alpha,Alpha,True,951,2,12279,trainPhase
14,2,C1150,Gamma,Gamma,True,853,2,12279,trainPhase
0,3,A50,Alpha,Alpha,True,969,2,12279,trainPhase
1,3,C1150,Gamma,Gamma,True,1756,2,12279,trainPhase
2,3,C1350,Gamma,Gamma,True,824,2,12279,trainPhase
3,3,B750,Beta,Gamma,False,3400,2,12279,trainPhase
4,3,A150,Alpha,Alpha,True,850,2,12279,trainPhase
5,3,B550,Beta,Beta,True,3706,2,12279,trainPhase
6,3,C1050,Gamma,Gamma,True,832,2,12279,trainPhase
7,3,C1250,Gamma,Gamma,True,696,2,12279,trainPhase
8,3,A250,Alpha,Alpha,True,1325,2,12279,trainPhase
9,3,A350,Alpha,Alpha,True,957,2,12279,trainPhase
10,3,B950,Beta,Beta,True,1327,2,12279,trainPhase
11,3,A450,Alpha,Alpha,True,6980,2,12279,trainPhase
12,3,B650,Beta,Beta,True,957,2,12279,trainPhase
13,3,B850,Beta,Beta,True,1286,2,12279,trainPhase
14,3,C1450,Gamma,Gamma,True,704,2,12279,trainPhase
0,4,B850,Beta,Beta,True,3944,2,12279,trainPhase
1,4,B550,Beta,Beta,True,3511,2,12279,trainPhase
2,4,A450,Alpha,Alpha,True,829,2,12279,trainPhase
3,4,A350,Alpha,Alpha,True,890,2,12279,trainPhase
4,4,C1250,Gamma,Gamma,True,1723,2,12279,trainPhase
5,4,C1150,Gamma,Gamma,True,2074,2,12279,trainPhase
6,4,C1450,Gamma,Gamma,True,888,2,12279,trainPhase
7,4,A150,Alpha,Alpha,True,886,2,12279,trainPhase
8,4,B950,Beta,Gamma,False,8657,2,12279,trainPhase
9,4,A250,Alpha,Alpha,True,816,2,12279,trainPhase
10,4,B750,Beta,Beta,True,9981,2,12279,trainPhase
11,4,B650,Beta,Alpha,False,1205,2,12279,trainPhase
12,4,C1050,Gamma,Gamma,True,1206,2,12279,trainPhase
13,4,C1350,Gamma,Gamma,True,1057,2,12279,trainPhase
14,4,A50,Alpha,Alpha,True,1020,2,12279,trainPhase
0,0,A50,Alpha,Alpha,True,2166,2,12281,trainPhase
1,0,B950,Beta,Alpha,False,2341,2,12281,trainPhase
2,0,C1050,Gamma,Gamma,True,2471,2,12281,trainPhase
3,0,B550,Beta,Beta,True,1426,2,12281,trainPhase
4,0,B750,Beta,Alpha,False,2678,2,12281,trainPhase
5,0,C1350,Gamma,Gamma,True,1565,2,12281,trainPhase
6,0,A150,Alpha,Alpha,True,2149,2,12281,trainPhase
7,0,C1450,Gamma,Beta,False,1669,2,12281,trainPhase
8,0,A250,Alpha,Alpha,True,2411,2,12281,trainPhase
9,0,A450,Alpha,Beta,False,1337,2,12281,trainPhase
10,0,B650,Beta,Alpha,False,1869,2,12281,trainPhase
11,0,C1150,Gamma,Gamma,True,1869,2,12281,trainPhase
12,0,A350,Alpha,Alpha,True,2069,2,12281,trainPhase
13,0,C1250,Gamma,Gamma,True,2541,2,12281,trainPhase
14,0,B850,Beta,Beta,True,2324,2,12281,trainPhase
0,1,C1050,Gamma,Beta,False,2045,2,12281,trainPhase
1,1,A50,Alpha,Alpha,True,1021,2,12281,trainPhase
2,1,C1450,Gamma,Gamma,True,1349,2,12281,trainPhase
3,1,A450,Alpha,Beta,False,1172,2,12281,trainPhase
4,1,C1150,Gamma,Beta,False,1706,2,12281,trainPhase
5,1,B750,Beta,Beta,True,1501,2,12281,trainPhase
6,1,B950,Beta,Gamma,False,1620,2,12281,trainPhase
7,1,C1350,Gamma,Gamma,True,1930,2,12281,trainPhase
8,1,A250,Alpha,Alpha,True,1421,2,12281,trainPhase
9,1,B850,Beta,Beta,True,875,2,12281,trainPhase
10,1,C1250,Gamma,Gamma,True,1555,2,12281,trainPhase
11,1,B550,Beta,Beta,True,854,2,12281,trainPhase
12,1,A150,Alpha,Alpha,True,966,2,12281,trainPhase
13,1,A350,Alpha,Alpha,True,1664,2,12281,trainPhase
14,1,B650,Beta,Beta,True,917,2,12281,trainPhase
0,2,B550,Beta,Alpha,False,1805,2,12281,trainPhase
1,2,C1150,Gamma,Gamma,True,1165,2,12281,trainPhase
2,2,A450,Alpha,Alpha,True,1661,2,12281,trainPhase
3,2,B950,Beta,Beta,True,723,2,12281,trainPhase
4,2,C1050,Gamma,Beta,False,1958,2,12281,trainPhase
5,2,C1250,Gamma,Gamma,True,1006,2,12281,trainPhase
6,2,A150,Alpha,Alpha,True,1093,2,12281,trainPhase
7,2,C1350,Gamma,Gamma,True,1421,2,12281,trainPhase
8,2,B850,Beta,Beta,True,1005,2,12281,trainPhase
9,2,C1450,Gamma,Gamma,True,1269,2,12281,trainPhase
10,2,B650,Beta,Beta,True,2871,2,12281,trainPhase
11,2,B750,Beta,Beta,True,4880,2,12281,trainPhase
12,2,A350,Alpha,Alpha,True,1157,2,12281,trainPhase
13,2,A50,Alpha,Alpha,True,1131,2,12281,trainPhase
14,2,A250,Alpha,Alpha,True,717,2,12281,trainPhase
0,3,A350,Alpha,Alpha,True,676,2,12281,trainPhase
1,3,A450,Alpha,Alpha,True,1262,2,12281,trainPhase
2,3,B850,Beta,Beta,True,773,2,12281,trainPhase
3,3,A150,Alpha,Alpha,True,1070,2,12281,trainPhase
4,3,B750,Beta,Beta,True,1174,2,12281,trainPhase
5,3,B550,Beta,Beta,True,813,2,12281,trainPhase
6,3,C1050,Gamma,Gamma,True,704,2,12281,trainPhase
7,3,B650,Beta,Beta,True,982,2,12281,trainPhase
8,3,C1150,Gamma,Gamma,True,1014,2,12281,trainPhase
9,3,C1350,Gamma,Gamma,True,1293,2,12281,trainPhase
10,3,A50,Alpha,Alpha,True,660,2,12281,trainPhase
11,3,C1250,Gamma,Gamma,True,1052,2,12281,trainPhase
12,3,C1450,Gamma,Gamma,True,964,2,12281,trainPhase
13,3,B950,Beta,Beta,True,1230,2,12281,trainPhase
14,3,A250,Alpha,Alpha,True,1561,2,12281,trainPhase
0,4,A50,Alpha,Alpha,True,790,2,12281,trainPhase
1,4,C1150,Gamma,Gamma,True,1614,2,12281,trainPhase
2,4,B550,Beta,Beta,True,1086,2,12281,trainPhase
3,4,A150,Alpha,Alpha,True,1126,2,12281,trainPhase
4,4,A250,Alpha,Alpha,True,693,2,12281,trainPhase
5,4,A450,Alpha,Alpha,True,756,2,12281,trainPhase
6,4,B650,Beta,Beta,True,870,2,12281,trainPhase
7,4,B850,Beta,Beta,True,1126,2,12281,trainPhase
8,4,B950,Beta,Gamma,False,1006,2,12281,trainPhase
9,4,A350,Alpha,Alpha,True,1560,2,12281,trainPhase
10,4,C1350,Gamma,Gamma,True,974,2,12281,trainPhase
11,4,C1250,Gamma,Gamma,True,1350,2,12281,trainPhase
12,4,C1050,Gamma,Gamma,True,2102,2,12281,trainPhase
13,4,B750,Beta,Beta,True,914,2,12281,trainPhase
14,4,C1450,Gamma,Gamma,True,1014,2,12281,trainPhase
0,0,B750,Beta,Alpha,False,4110,2,12284,trainPhase
1,0,B650,Beta,Beta,True,1265,2,12284,trainPhase
2,0,C1350,Gamma,Alpha,False,2768,2,12284,trainPhase
3,0,C1150,Gamma,Gamma,True,1036,2,12284,trainPhase
4,0,B950,Beta,Gamma,False,1101,2,12284,trainPhase
5,0,A450,Alpha,Beta,False,2317,2,12284,trainPhase
6,0,B550,Beta,Beta,True,1973,2,12284,trainPhase
7,0,A50,Alpha,Alpha,True,1548,2,12284,trainPhase
8,0,C1450,Gamma,Gamma,True,1584,2,12284,trainPhase
9,0,A350,Alpha,Beta,False,1938,2,12284,trainPhase
10,0,C1050,Gamma,Gamma,True,1325,2,12284,trainPhase
11,0,C1250,Gamma,Gamma,True,1182,2,12284,trainPhase
12,0,B850,Beta,Beta,True,1134,2,12284,trainPhase
13,0,A250,Alpha,Alpha,True,1011,2,12284,trainPhase
14,0,A150,Alpha,Alpha,True,888,2,12284,trainPhase
0,1,C1150,Gamma,Gamma,True,1092,2,12284,trainPhase
1,1,B550,Beta,Beta,True,647,2,12284,trainPhase
2,1,C1450,Gamma,Gamma,True,1302,2,12284,trainPhase
3,1,B950,Beta,Beta,True,2621,2,12284,trainPhase
4,1,A250,Alpha,Alpha,True,864,2,12284,trainPhase
5,1,C1050,Gamma,Gamma,True,1192,2,12284,trainPhase
6,1,C1350,Gamma,Gamma,True,1164,2,12284,trainPhase
7,1,A450,Alpha,Beta,False,1703,2,12284,trainPhase
8,1,B750,Beta,Beta,True,861,2,12284,trainPhase
9,1,A350,Alpha,Alpha,True,745,2,12284,trainPhase
10,1,C1250,Gamma,Gamma,True,1155,2,12284,trainPhase
11,1,B650,Beta,Beta,True,869,2,12284,trainPhase
12,1,A50,Alpha,Alpha,True,1143,2,12284,trainPhase
13,1,A150,Alpha,Alpha,True,1274,2,12284,trainPhase
14,1,B850,Beta,Beta,True,1032,2,12284,trainPhase
0,2,B850,Beta,Gamma,False,786,2,12284,trainPhase
1,2,B650,Beta,Beta,True,558,2,12284,trainPhase
2,2,A350,Alpha,Alpha,True,579,2,12284,trainPhase
3,2,A250,Alpha,Alpha,True,1421,2,12284,trainPhase
4,2,C1250,Gamma,Gamma,True,1254,2,12284,trainPhase
5,2,C1050,Gamma,Gamma,True,1654,2,12284,trainPhase
6,2,A50,Alpha,Alpha,True,974,2,12284,trainPhase
7,2,B950,Beta,Gamma,False,910,2,12284,trainPhase
8,2,B550,Beta,Beta,True,574,2,12284,trainPhase
9,2,C1350,Gamma,Gamma,True,1013,2,12284,trainPhase
10,2,B750,Beta,Beta,True,1110,2,12284,trainPhase
11,2,A450,Alpha,Alpha,True,1046,2,12284,trainPhase
12,2,A150,Alpha,Alpha,True,1070,2,12284,trainPhase
13,2,C1450,Gamma,Gamma,True,611,2,12284,trainPhase
14,2,C1150,Gamma,Gamma,True,1403,2,12284,trainPhase
0,3,C1150,Gamma,Gamma,True,872,2,12284,trainPhase
1,3,C1050,Gamma,Gamma,True,1075,2,12284,trainPhase
2,3,A50,Alpha,Alpha,True,1238,2,12284,trainPhase
3,3,A350,Alpha,Beta,False,689,2,12284,trainPhase
4,3,C1350,Gamma,Gamma,True,1566,2,12284,trainPhase
5,3,B950,Beta,Gamma,False,1131,2,12284,trainPhase
6,3,A450,Alpha,Beta,False,660,2,12284,trainPhase
7,3,B650,Beta,Beta,True,1205,2,12284,trainPhase
8,3,B550,Beta,Beta,True,709,2,12284,trainPhase
9,3,C1250,Gamma,Gamma,True,1171,2,12284,trainPhase
10,3,B750,Beta,Beta,True,849,2,12284,trainPhase
11,3,C1450,Gamma,Gamma,True,795,2,12284,trainPhase
12,3,A250,Alpha,Alpha,True,999,2,12284,trainPhase
13,3,B850,Beta,Beta,True,1210,2,12284,trainPhase
14,3,A150,Alpha,Alpha,True,1170,2,12284,trainPhase
0,4,B550,Beta,Beta,True,671,2,12284,trainPhase
1,4,B850,Beta,Beta,True,1821,2,12284,trainPhase
2,4,C1350,Gamma,Gamma,True,982,2,12284,trainPhase
3,4,C1150,Gamma,Gamma,True,1175,2,12284,trainPhase
4,4,A350,Alpha,Alpha,True,1394,2,12284,trainPhase
5,4,C1450,Gamma,Gamma,True,726,2,12284,trainPhase
6,4,A450,Alpha,Beta,False,1264,2,12284,trainPhase
7,4,A250,Alpha,Alpha,True,822,2,12284,trainPhase
8,4,B950,Beta,Beta,True,893,2,12284,trainPhase
9,4,B750,Beta,Beta,True,851,2,12284,trainPhase
10,4,A50,Alpha,Alpha,True,662,2,12284,trainPhase
11,4,B650,Beta,Beta,True,486,2,12284,trainPhase
12,4,A150,Alpha,Alpha,True,1107,2,12284,trainPhase
13,4,C1050,Gamma,Gamma,True,1280,2,12284,trainPhase
14,4,C1250,Gamma,Gamma,True,1458,2,12284,trainPhase
0,0,B750,Beta,Beta,True,4022,2,12287,trainPhase
1,0,A350,Alpha,Alpha,True,1454,2,12287,trainPhase
2,0,B650,Beta,Beta,True,1425,2,12287,trainPhase
3,0,B550,Beta,Beta,True,1394,2,12287,trainPhase
4,0,C1050,Gamma,Gamma,True,1827,2,12287,trainPhase
5,0,A450,Alpha,Beta,False,1715,2,12287,trainPhase
6,0,C1450,Gamma,Gamma,True,1102,2,12287,trainPhase
7,0,A150,Alpha,Alpha,True,943,2,12287,trainPhase
8,0,B850,Beta,Beta,True,1194,2,12287,trainPhase
9,0,C1150,Gamma,Gamma,True,1409,2,12287,trainPhase
10,0,C1350,Gamma,Gamma,True,1533,2,12287,trainPhase
11,0,A250,Alpha,Alpha,True,1148,2,12287,trainPhase
12,0,C1250,Gamma,Beta,False,1266,2,12287,trainPhase
13,0,B950,Beta,Gamma,False,1741,2,12287,trainPhase
14,0,A50,Alpha,Alpha,True,1009,2,12287,trainPhase
0,1,C1450,Gamma,Gamma,True,996,2,12287,trainPhase
1,1,A50,Alpha,Alpha,True,926,2,12287,trainPhase
2,1,C1150,Gamma,Gamma,True,1419,2,12287,trainPhase
3,1,A450,Alpha,Alpha,True,1651,2,12287,trainPhase
4,1,B650,Beta,Alpha,False,1473,2,12287,trainPhase
5,1,A350,Alpha,Alpha,True,998,2,12287,trainPhase
6,1,B850,Beta,Beta,True,1863,2,12287,trainPhase
7,1,C1250,Gamma,Gamma,True,1200,2,12287,trainPhase
8,1,B750,Beta,Beta,True,1129,2,12287,trainPhase
9,1,C1050,Gamma,Gamma,True,1472,2,12287,trainPhase
10,1,A150,Alpha,Alpha,True,900,2,12287,trainPhase
11,1,A250,Alpha,Alpha,True,945,2,12287,trainPhase
12,1,B550,Beta,Alpha,False,1889,2,12287,trainPhase
13,1,B950,Beta,Gamma,False,1076,2,12287,trainPhase
14,1,C1350,Gamma,Gamma,True,866,2,12287,trainPhase
0,2,C1450,Gamma,Gamma,True,929,2,12287,trainPhase
1,2,A450,Alpha,Alpha,True,1147,2,12287,trainPhase
2,2,A150,Alpha,Alpha,True,851,2,12287,trainPhase
3,2,B650,Beta,Beta,True,1784,2,12287,trainPhase
4,2,C1250,Gamma,Gamma,True,1171,2,12287,trainPhase
5,2,B850,Beta,Beta,True,1813,2,12287,trainPhase
6,2,B550,Beta,Alpha,False,960,2,12287,trainPhase
7,2,B950,Beta,Beta,True,1838,2,12287,trainPhase
8,2,C1150,Gamma,Gamma,True,1001,2,12287,trainPhase
9,2,A50,Alpha,Alpha,True,879,2,12287,trainPhase
10,2,B750,Beta,Beta,True,1465,2,12287,trainPhase
11,2,A250,Alpha,Alpha,True,1771,2,12287,trainPhase
12,2,A350,Alpha,Alpha,True,1066,2,12287,trainPhase
13,2,C1350,Gamma,Gamma,True,972,2,12287,trainPhase
14,2,C1050,Gamma,Gamma,True,1575,2,12287,trainPhase
0,3,A350,Alpha,Alpha,True,1407,2,12287,trainPhase
1,3,C1150,Gamma,Gamma,True,1233,2,12287,trainPhase
2,3,C1250,Gamma,Gamma,True,954,2,12287,trainPhase
3,3,B550,Beta,Beta,True,1932,2,12287,trainPhase
4,3,B750,Beta,Beta,True,1348,2,12287,trainPhase
5,3,B650,Beta,Beta,True,923,2,12287,trainPhase
6,3,B950,Beta,Gamma,False,1173,2,12287,trainPhase
7,3,A250,Alpha,Alpha,True,1253,2,12287,trainPhase
8,3,A450,Alpha,Alpha,True,933,2,12287,trainPhase
9,3,A50,Alpha,Alpha,True,885,2,12287,trainPhase
10,3,C1350,Gamma,Gamma,True,1092,2,12287,trainPhase
11,3,B850,Beta,Beta,True,1508,2,12287,trainPhase
12,3,A150,Alpha,Alpha,True,838,2,12287,trainPhase
13,3,C1050,Gamma,Gamma,True,2550,2,12287,trainPhase
14,3,C1450,Gamma,Gamma,True,1031,2,12287,trainPhase
0,4,C1350,Gamma,Gamma,True,1022,2,12287,trainPhase
1,4,B750,Beta,Beta,True,1737,2,12287,trainPhase
2,4,B550,Beta,Beta,True,1041,2,12287,trainPhase
3,4,A350,Alpha,Alpha,True,1859,2,12287,trainPhase
4,4,A50,Alpha,Alpha,True,735,2,12287,trainPhase
5,4,C1050,Gamma,Gamma,True,3321,2,12287,trainPhase
6,4,C1250,Gamma,Gamma,True,1062,2,12287,trainPhase
7,4,C1450,Gamma,Gamma,True,808,2,12287,trainPhase
8,4,B850,Beta,Beta,True,2306,2,12287,trainPhase
9,4,B650,Beta,Beta,True,959,2,12287,trainPhase
10,4,C1150,Gamma,Gamma,True,1158,2,12287,trainPhase
11,4,A150,Alpha,Alpha,True,951,2,12287,trainPhase
12,4,A450,Alpha,Alpha,True,2648,2,12287,trainPhase
13,4,A250,Alpha,Alpha,True,1103,2,12287,trainPhase
14,4,B950,Beta,Beta,True,1176,2,12287,trainPhase
0,0,B850,Beta,Alpha,False,23535,2,12290,trainPhase
1,0,C1350,Gamma,Beta,False,2380,2,12290,trainPhase
2,0,A150,Alpha,Alpha,True,1913,2,12290,trainPhase
3,0,B750,Beta,Beta,True,4057,2,12290,trainPhase
4,0,A350,Alpha,Alpha,True,4252,2,12290,trainPhase
5,0,C1450,Gamma,Gamma,True,1729,2,12290,trainPhase
6,0,B550,Beta,Beta,True,3873,2,12290,trainPhase
7,0,C1050,Gamma,Gamma,True,2109,2,12290,trainPhase
8,0,A450,Alpha,Alpha,True,2974,2,12290,trainPhase
9,0,C1150,Gamma,Gamma,True,2233,2,12290,trainPhase
10,0,A250,Alpha,Alpha,True,1735,2,12290,trainPhase
11,0,B650,Beta,Beta,True,3114,2,12290,trainPhase
12,0,B950,Beta,Beta,True,2014,2,12290,trainPhase
13,0,A50,Alpha,Alpha,True,1412,2,12290,trainPhase
14,0,C1250,Gamma,Gamma,True,1534,2,12290,trainPhase
0,1,B750,Beta,Beta,True,1497,2,12290,trainPhase
1,1,A350,Alpha,Alpha,True,1318,2,12290,trainPhase
2,1,C1350,Gamma,Gamma,True,1125,2,12290,trainPhase
3,1,C1050,Gamma,Gamma,True,1507,2,12290,trainPhase
4,1,A150,Alpha,Alpha,True,1834,2,12290,trainPhase
5,1,B550,Beta,Beta,True,3998,2,12290,trainPhase
6,1,A250,Alpha,Alpha,True,2136,2,12290,trainPhase
7,1,C1150,Gamma,Gamma,True,1911,2,12290,trainPhase
8,1,A450,Alpha,Alpha,True,2531,2,12290,trainPhase
9,1,C1450,Gamma,Gamma,True,1859,2,12290,trainPhase
10,1,C1250,Gamma,Gamma,True,1617,2,12290,trainPhase
11,1,B850,Beta,Beta,True,1846,2,12290,trainPhase
12,1,B650,Beta,Beta,True,1919,2,12290,trainPhase
13,1,B950,Beta,Gamma,False,1493,2,12290,trainPhase
14,1,A50,Alpha,Alpha,True,1274,2,12290,trainPhase
0,2,A50,Alpha,Alpha,True,1341,2,12290,trainPhase
1,2,B850,Beta,Beta,True,6206,2,12290,trainPhase
2,2,B650,Beta,Beta,True,1694,2,12290,trainPhase
3,2,B550,Beta,Beta,True,3089,2,12290,trainPhase
4,2,C1250,Gamma,Gamma,True,1435,2,12290,trainPhase
5,2,C1350,Gamma,Gamma,True,1040,2,12290,trainPhase
6,2,A250,Alpha,Alpha,True,1169,2,12290,trainPhase
7,2,A350,Alpha,Alpha,True,1308,2,12290,trainPhase
8,2,B750,Beta,Beta,True,1369,2,12290,trainPhase
9,2,C1450,Gamma,Gamma,True,1401,2,12290,trainPhase
10,2,A150,Alpha,Alpha,True,1392,2,12290,trainPhase
11,2,C1050,Gamma,Beta,False,2775,2,12290,trainPhase
12,2,A450,Alpha,Alpha,True,4483,2,12290,trainPhase
13,2,B950,Beta,Beta,True,3562,2,12290,trainPhase
14,2,C1150,Gamma,Gamma,True,1340,2,12290,trainPhase
0,3,C1050,Gamma,Gamma,True,1041,2,12290,trainPhase
1,3,A50,Alpha,Alpha,True,1111,2,12290,trainPhase
2,3,B750,Beta,Beta,True,2695,2,12290,trainPhase
3,3,B650,Beta,Beta,True,2088,2,12290,trainPhase
4,3,A250,Alpha,Alpha,True,1196,2,12290,trainPhase
5,3,C1350,Gamma,Gamma,True,1202,2,12290,trainPhase
6,3,C1250,Gamma,Gamma,True,1079,2,12290,trainPhase
7,3,A450,Alpha,Alpha,True,2585,2,12290,trainPhase
8,3,A150,Alpha,Alpha,True,1295,2,12290,trainPhase
9,3,B550,Beta,Alpha,False,1357,2,12290,trainPhase
10,3,B950,Beta,Beta,True,3014,2,12290,trainPhase
11,3,C1450,Gamma,Gamma,True,1244,2,12290,trainPhase
12,3,B850,Beta,Beta,True,1835,2,12290,trainPhase
13,3,C1150,Gamma,Gamma,True,1288,2,12290,trainPhase
14,3,A350,Alpha,Alpha,True,1552,2,12290,trainPhase
