trial,block,stimId,category,response,accuracy,rt,condition,id,phase
0,0,C1250,Gamma,Beta,False,2558,3,12141,trainPhase
1,0,A450,Alpha,Alpha,True,1349,3,12141,trainPhase
2,0,B650,Beta,Beta,True,905,3,12141,trainPhase
3,0,A350,Alpha,Alpha,True,1465,3,12141,trainPhase
4,0,B550,Beta,Beta,True,597,3,12141,trainPhase
5,0,C1350,Gamma,Gamma,True,614,3,12141,trainPhase
6,0,C1050,Gamma,Gamma,True,1587,3,12141,trainPhase
7,0,C1450,Gamma,Gamma,True,806,3,12141,trainPhase
8,0,B850,Beta,Beta,True,2381,3,12141,trainPhase
9,0,A50,Alpha,Alpha,True,908,3,12141,trainPhase
10,0,A250,Alpha,Alpha,True,1340,3,12141,trainPhase
11,0,C1150,Gamma,Beta,False,1037,3,12141,trainPhase
12,0,B950,Beta,Beta,True,1243,3,12141,trainPhase
13,0,B750,Beta,Beta,True,789,3,12141,trainPhase
14,0,A150,Alpha,Alpha,True,1461,3,12141,trainPhase
0,1,A150,Alpha,Alpha,True,701,3,12141,trainPhase
1,1,C1250,Gamma,Gamma,True,1140,3,12141,trainPhase
2,1,C1350,Gamma,Gamma,True,1093,3,12141,trainPhase
3,1,B650,Beta,Beta,True,766,3,12141,trainPhase
4,1,C1050,Gamma,Gamma,True,1333,3,12141,trainPhase
5,1,A350,Alpha,Beta,False,741,3,12141,trainPhase
6,1,C1450,Gamma,Gamma,True,1198,3,12141,trainPhase
7,1,B850,Beta,Beta,True,845,3,12141,trainPhase
8,1,C1150,Gamma,Gamma,True,1037,3,12141,trainPhase
9,1,A50,Alpha,Alpha,True,892,3,12141,trainPhase
10,1,A450,Alpha,Beta,False,845,3,12141,trainPhase
11,1,B750,Beta,Beta,True,611,3,12141,trainPhase
12,1,A250,Alpha,Alpha,True,894,3,12141,trainPhase
13,1,B550,Beta,Alpha,False,1990,3,12141,trainPhase
14,1,B950,Beta,Beta,True,550,3,12141,trainPhase
0,2,C1350,Gamma,Gamma,True,509,3,12141,trainPhase
1,2,A450,Alpha,Alpha,True,1557,3,12141,trainPhase
2,2,A350,Alpha,Alpha,True,975,3,12141,trainPhase
3,2,B950,Beta,Beta,True,758,3,12141,trainPhase
4,2,B550,Beta,Alpha,False,1308,3,12141,trainPhase
5,2,C1250,Gamma,Gamma,True,1030,3,12141,trainPhase
6,2,A50,Alpha,Alpha,True,1209,3,12141,trainPhase
7,2,A150,Alpha,Alpha,True,1734,3,12141,trainPhase
8,2,C1150,Gamma,Gamma,True,1001,3,12141,trainPhase
9,2,B750,Beta,Beta,True,975,3,12141,trainPhase
10,2,A250,Alpha,Alpha,True,1109,3,12141,trainPhase
11,2,C1450,Gamma,Gamma,True,951,3,12141,trainPhase
12,2,B850,Beta,Beta,True,912,3,12141,trainPhase
13,2,C1050,Gamma,Gamma,True,1308,3,12141,trainPhase
14,2,B650,Beta,Beta,True,717,3,12141,trainPhase
0,3,B550,Beta,Alpha,False,1565,3,12141,trainPhase
1,3,C1450,Gamma,Gamma,True,807,3,12141,trainPhase
2,3,A350,Alpha,Alpha,True,1157,3,12141,trainPhase
3,3,A50,Alpha,Alpha,True,942,3,12141,trainPhase
4,3,B950,Beta,Beta,True,1413,3,12141,trainPhase
5,3,A150,Alpha,Alpha,True,973,3,12141,trainPhase
6,3,C1250,Gamma,Gamma,True,1270,3,12141,trainPhase
7,3,B850,Beta,Beta,True,1006,3,12141,trainPhase
8,3,C1150,Gamma,Gamma,True,696,3,12141,trainPhase
9,3,C1350,Gamma,Gamma,True,1371,3,12141,trainPhase
10,3,A450,Alpha,Beta,False,935,3,12141,trainPhase
11,3,B650,Beta,Beta,True,950,3,12141,trainPhase
12,3,A250,Alpha,Alpha,True,1062,3,12141,trainPhase
13,3,C1050,Gamma,Gamma,True,1140,3,12141,trainPhase
14,3,B750,Beta,Beta,True,801,3,12141,trainPhase
0,4,A150,Alpha,Alpha,True,841,3,12141,trainPhase
1,4,C1050,Gamma,Gamma,True,1751,3,12141,trainPhase
2,4,B750,Beta,Beta,True,1140,3,12141,trainPhase
3,4,B850,Beta,Beta,True,1152,3,12141,trainPhase
4,4,A250,Alpha,Alpha,True,997,3,12141,trainPhase
5,4,C1150,Gamma,Gamma,True,1454,3,12141,trainPhase
6,4,C1450,Gamma,Gamma,True,1117,3,12141,trainPhase
7,4,C1250,Gamma,Gamma,True,798,3,12141,trainPhase
8,4,A450,Alpha,Beta,False,806,3,12141,trainPhase
9,4,A350,Alpha,Alpha,True,1357,3,12141,trainPhase
10,4,B650,Beta,Beta,True,1062,3,12141,trainPhase
11,4,A50,Alpha,Alpha,True,812,3,12141,trainPhase
12,4,B950,Beta,Gamma,False,2582,3,12141,trainPhase
13,4,B550,Beta,Beta,True,1157,3,12141,trainPhase
14,4,C1350,Gamma,Gamma,True,1048,3,12141,trainPhase
0,0,B850,Beta,Alpha,False,3428,3,12144,trainPhase
1,0,B550,Beta,Gamma,False,2101,3,12144,trainPhase
2,0,C1150,Gamma,Beta,False,1292,3,12144,trainPhase
3,0,B950,Beta,Beta,True,2226,3,12144,trainPhase
4,0,C1350,Gamma,Gamma,True,969,3,12144,trainPhase
5,0,A350,Alpha,Alpha,True,1411,3,12144,trainPhase
6,0,C1050,Gamma,Beta,False,811,3,12144,trainPhase
7,0,A250,Alpha,Alpha,True,1674,3,12144,trainPhase
8,0,B650,Beta,Beta,True,1946,3,12144,trainPhase
9,0,C1250,Gamma,Gamma,True,945,3,12144,trainPhase
10,0,C1450,Gamma,Gamma,True,1118,3,12144,trainPhase
11,0,B750,Beta,Beta,True,782,3,12144,trainPhase
12,0,A450,Alpha,Alpha,True,1229,3,12144,trainPhase
13,0,A50,Alpha,Alpha,True,1127,3,12144,trainPhase
14,0,A150,Alpha,Alpha,True,2010,3,12144,trainPhase
0,1,B650,Beta,Beta,True,1291,3,12144,trainPhase
1,1,B950,Beta,Beta,True,1378,3,12144,trainPhase
2,1,B550,Beta,Beta,True,1895,3,12144,trainPhase
3,1,A350,Alpha,Beta,False,1683,3,12144,trainPhase
4,1,C1450,Gamma,Gamma,True,1223,3,12144,trainPhase
5,1,A50,Alpha,Alpha,True,1189,3,12144,trainPhase
6,1,C1350,Gamma,Gamma,True,1695,3,12144,trainPhase
7,1,C1250,Gamma,Gamma,True,965,3,12144,trainPhase
8,1,A150,Alpha,Alpha,True,2079,3,12144,trainPhase
9,1,A250,Alpha,Alpha,True,2430,3,12144,trainPhase
10,1,C1150,Gamma,Gamma,True,1030,3,12144,trainPhase
11,1,B750,Beta,Beta,True,1470,3,12144,trainPhase
12,1,A450,Alpha,Beta,False,751,3,12144,trainPhase
13,1,C1050,Gamma,Gamma,True,1769,3,12144,trainPhase
14,1,B850,Beta,Gamma,False,1575,3,12144,trainPhase
0,2,B550,Beta,Beta,True,770,3,12144,trainPhase
1,2,A350,Alpha,Alpha,True,921,3,12144,trainPhase
2,2,A150,Alpha,Alpha,True,917,3,12144,trainPhase
3,2,B950,Beta,Gamma,False,1138,3,12144,trainPhase
4,2,B750,Beta,Beta,True,1342,3,12144,trainPhase
5,2,A50,Alpha,Alpha,True,1155,3,12144,trainPhase
6,2,A450,Alpha,Beta,False,1092,3,12144,trainPhase
7,2,C1150,Gamma,Gamma,True,1263,3,12144,trainPhase
8,2,A250,Alpha,Alpha,True,1015,3,12144,trainPhase
9,2,B850,Beta,Gamma,False,1534,3,12144,trainPhase
10,2,C1350,Gamma,Gamma,True,947,3,12144,trainPhase
11,2,C1250,Gamma,Gamma,True,1637,3,12144,trainPhase
12,2,B650,Beta,Beta,True,970,3,12144,trainPhase
13,2,C1450,Gamma,Gamma,True,1714,3,12144,trainPhase
14,2,C1050,Gamma,Gamma,True,2378,3,12144,trainPhase
0,3,B950,Beta,Gamma,False,982,3,12144,trainPhase
1,3,C1450,Gamma,Gamma,True,1334,3,12144,trainPhase
2,3,B750,Beta,Beta,True,1043,3,12144,trainPhase
3,3,A50,Alpha,Alpha,True,999,3,12144,trainPhase
4,3,C1150,Gamma,Beta,False,1130,3,12144,trainPhase
5,3,B850,Beta,Gamma,False,1661,3,12144,trainPhase
6,3,C1050,Gamma,Gamma,True,1061,3,12144,trainPhase
7,3,C1350,Gamma,Gamma,True,880,3,12144,trainPhase
8,3,B650,Beta,Beta,True,669,3,12144,trainPhase
9,3,A250,Alpha,Alpha,True,1149,3,12144,trainPhase
10,3,A150,Alpha,Alpha,True,736,3,12144,trainPhase
11,3,A450,Alpha,Beta,False,1596,3,12144,trainPhase
12,3,A350,Alpha,Alpha,True,1305,3,12144,trainPhase
13,3,B550,Beta,Beta,True,1498,3,12144,trainPhase
14,3,C1250,Gamma,Gamma,True,1025,3,12144,trainPhase
0,4,C1350,Gamma,Gamma,True,1085,3,12144,trainPhase
1,4,A450,Alpha,Alpha,True,1511,3,12144,trainPhase
2,4,B550,Beta,Beta,True,840,3,12144,trainPhase
3,4,A350,Alpha,Alpha,True,1217,3,12144,trainPhase
4,4,B950,Beta,Gamma,False,2059,3,12144,trainPhase
5,4,C1150,Gamma,Gamma,True,941,3,12144,trainPhase
6,4,B750,Beta,Beta,True,964,3,12144,trainPhase
7,4,C1050,Gamma,Gamma,True,667,3,12144,trainPhase
8,4,A250,Alpha,Alpha,True,1095,3,12144,trainPhase
9,4,A50,Alpha,Alpha,True,1133,3,12144,trainPhase
10,4,A150,Alpha,Alpha,True,3154,3,12144,trainPhase
11,4,B850,Beta,Gamma,False,2445,3,12144,trainPhase
12,4,C1450,Gamma,Gamma,True,1071,3,12144,trainPhase
13,4,C1250,Gamma,Gamma,True,1208,3,12144,trainPhase
14,4,B650,Beta,Beta,True,888,3,12144,trainPhase
0,0,C1450,Gamma,Alpha,False,10548,3,12161,trainPhase
1,0,B550,Beta,Beta,True,5449,3,12161,trainPhase
2,0,C1150,Gamma,Gamma,True,2138,3,12161,trainPhase
3,0,B750,Beta,Beta,True,1992,3,12161,trainPhase
4,0,A250,Alpha,Alpha,True,1916,3,12161,trainPhase
5,0,C1050,Gamma,Gamma,True,1661,3,12161,trainPhase
6,0,A350,Alpha,Beta,False,2962,3,12161,trainPhase
7,0,C1250,Gamma,Gamma,True,1478,3,12161,trainPhase
8,0,A150,Alpha,Alpha,True,2049,3,12161,trainPhase
9,0,B850,Beta,Beta,True,1867,3,12161,trainPhase
10,0,B950,Beta,Gamma,False,2233,3,12161,trainPhase
11,0,A50,Alpha,Alpha,True,1668,3,12161,trainPhase
12,0,A450,Alpha,Beta,False,1575,3,12161,trainPhase
13,0,C1350,Gamma,Gamma,True,1796,3,12161,trainPhase
14,0,B650,Beta,Beta,True,1569,3,12161,trainPhase
0,1,A150,Alpha,Alpha,True,2076,3,12161,trainPhase
1,1,B750,Beta,Beta,True,1642,3,12161,trainPhase
2,1,C1450,Gamma,Gamma,True,1543,3,12161,trainPhase
3,1,A350,Alpha,Beta,False,1644,3,12161,trainPhase
4,1,B850,Beta,Beta,True,1434,3,12161,trainPhase
5,1,C1150,Gamma,Gamma,True,1757,3,12161,trainPhase
6,1,C1250,Gamma,Gamma,True,1843,3,12161,trainPhase
7,1,A50,Alpha,Alpha,True,1840,3,12161,trainPhase
8,1,B650,Beta,Beta,True,2172,3,12161,trainPhase
9,1,B950,Beta,Beta,True,3532,3,12161,trainPhase
10,1,A250,Alpha,Alpha,True,2093,3,12161,trainPhase
11,1,C1350,Gamma,Gamma,True,1809,3,12161,trainPhase
12,1,B550,Beta,Beta,True,2290,3,12161,trainPhase
13,1,A450,Alpha,Beta,False,1427,3,12161,trainPhase
14,1,C1050,Gamma,Beta,False,1938,3,12161,trainPhase
0,2,B750,Beta,Beta,True,1275,3,12161,trainPhase
1,2,A250,Alpha,Alpha,True,1331,3,12161,trainPhase
2,2,A350,Alpha,Alpha,True,1628,3,12161,trainPhase
3,2,B850,Beta,Beta,True,1682,3,12161,trainPhase
4,2,A450,Alpha,Beta,False,2909,3,12161,trainPhase
5,2,C1350,Gamma,Gamma,True,1671,3,12161,trainPhase
6,2,C1050,Gamma,Beta,False,2110,3,12161,trainPhase
7,2,B550,Beta,Beta,True,1578,3,12161,trainPhase
8,2,B650,Beta,Beta,True,1908,3,12161,trainPhase
9,2,C1250,Gamma,Gamma,True,1691,3,12161,trainPhase
10,2,B950,Beta,Beta,True,1675,3,12161,trainPhase
11,2,C1150,Gamma,Gamma,True,1575,3,12161,trainPhase
12,2,A50,Alpha,Alpha,True,1316,3,12161,trainPhase
13,2,A150,Alpha,Alpha,True,2069,3,12161,trainPhase
14,2,C1450,Gamma,Gamma,True,1606,3,12161,trainPhase
0,3,A350,Alpha,Beta,False,1558,3,12161,trainPhase
1,3,A250,Alpha,Alpha,True,1454,3,12161,trainPhase
2,3,A450,Alpha,Beta,False,2150,3,12161,trainPhase
3,3,B650,Beta,Beta,True,2970,3,12161,trainPhase
4,3,C1450,Gamma,Gamma,True,1528,3,12161,trainPhase
5,3,A150,Alpha,Alpha,True,1394,3,12161,trainPhase
6,3,B750,Beta,Beta,True,1281,3,12161,trainPhase
7,3,B950,Beta,Gamma,False,1910,3,12161,trainPhase
8,3,A50,Alpha,Alpha,True,1460,3,12161,trainPhase
9,3,B850,Beta,Beta,True,2233,3,12161,trainPhase
10,3,C1150,Gamma,Gamma,True,1179,3,12161,trainPhase
11,3,C1050,Gamma,Gamma,True,1655,3,12161,trainPhase
12,3,B550,Beta,Beta,True,1460,3,12161,trainPhase
13,3,C1250,Gamma,Gamma,True,1535,3,12161,trainPhase
14,3,C1350,Gamma,Gamma,True,1657,3,12161,trainPhase
0,4,A50,Alpha,Alpha,True,1481,3,12161,trainPhase
1,4,B550,Beta,Beta,True,1455,3,12161,trainPhase
2,4,C1150,Gamma,Gamma,True,1398,3,12161,trainPhase
3,4,A350,Alpha,Beta,False,1394,3,12161,trainPhase
4,4,A250,Alpha,Alpha,True,1683,3,12161,trainPhase
5,4,C1250,Gamma,Gamma,True,1313,3,12161,trainPhase
6,4,B950,Beta,Gamma,False,1897,3,12161,trainPhase
7,4,B850,Beta,Beta,True,1331,3,12161,trainPhase
8,4,C1450,Gamma,Gamma,True,1169,3,12161,trainPhase
9,4,B750,Beta,Beta,True,1373,3,12161,trainPhase
10,4,C1350,Gamma,Gamma,True,1457,3,12161,trainPhase
11,4,C1050,Gamma,Gamma,True,1525,3,12161,trainPhase
12,4,A450,Alpha,Beta,False,2237,3,12161,trainPhase
13,4,B650,Beta,Beta,True,1347,3,12161,trainPhase
14,4,A150,Alpha,Alpha,True,1022,3,12161,trainPhase
0,0,A450,Alpha,Alpha,True,4419,3,12183,trainPhase
1,0,B750,Beta,Gamma,False,2976,3,12183,trainPhase
2,0,A150,Alpha,Gamma,False,1830,3,12183,trainPhase
3,0,B850,Beta,Alpha,False,1266,3,12183,trainPhase
4,0,B550,Beta,Alpha,False,1813,3,12183,trainPhase
5,0,C1150,Gamma,Alpha,False,3490,3,12183,trainPhase
6,0,B950,Beta,Alpha,False,1471,3,12183,trainPhase
7,0,C1450,Gamma,Beta,False,5573,3,12183,trainPhase
8,0,C1350,Gamma,Gamma,True,1269,3,12183,trainPhase
9,0,B650,Beta,Beta,True,1230,3,12183,trainPhase
10,0,C1250,Gamma,Gamma,True,1013,3,12183,trainPhase
11,0,A250,Alpha,Alpha,True,999,3,12183,trainPhase
12,0,C1050,Gamma,Gamma,True,3421,3,12183,trainPhase
13,0,A350,Alpha,Beta,False,772,3,12183,trainPhase
14,0,A50,Alpha,Alpha,True,1048,3,12183,trainPhase
0,1,A50,Alpha,Alpha,True,877,3,12183,trainPhase
1,1,B650,Beta,Beta,True,1189,3,12183,trainPhase
2,1,A250,Alpha,Alpha,True,1837,3,12183,trainPhase
3,1,C1150,Gamma,Gamma,True,1290,3,12183,trainPhase
4,1,B950,Beta,Gamma,False,925,3,12183,trainPhase
5,1,C1250,Gamma,Gamma,True,1842,3,12183,trainPhase
6,1,B850,Beta,Beta,True,885,3,12183,trainPhase
7,1,B550,Beta,Beta,True,1142,3,12183,trainPhase
8,1,A150,Alpha,Alpha,True,909,3,12183,trainPhase
9,1,B750,Beta,Gamma,False,1062,3,12183,trainPhase
10,1,C1450,Gamma,Gamma,True,1333,3,12183,trainPhase
11,1,C1050,Gamma,Gamma,True,875,3,12183,trainPhase
12,1,C1350,Gamma,Gamma,True,1790,3,12183,trainPhase
13,1,A450,Alpha,Beta,False,2013,3,12183,trainPhase
14,1,A350,Alpha,Alpha,True,1038,3,12183,trainPhase
0,2,C1050,Gamma,Gamma,True,1316,3,12183,trainPhase
1,2,A250,Alpha,Alpha,True,1160,3,12183,trainPhase
2,2,C1150,Gamma,Gamma,True,909,3,12183,trainPhase
3,2,B550,Beta,Beta,True,1717,3,12183,trainPhase
4,2,B750,Beta,Beta,True,4013,3,12183,trainPhase
5,2,A350,Alpha,Alpha,True,1566,3,12183,trainPhase
6,2,A450,Alpha,Beta,False,901,3,12183,trainPhase
7,2,A150,Alpha,Alpha,True,934,3,12183,trainPhase
8,2,C1350,Gamma,Gamma,True,1157,3,12183,trainPhase
9,2,B650,Beta,Beta,True,909,3,12183,trainPhase
10,2,B950,Beta,Gamma,False,2333,3,12183,trainPhase
11,2,C1450,Gamma,Gamma,True,2806,3,12183,trainPhase
12,2,B850,Beta,Gamma,False,2075,3,12183,trainPhase
13,2,A50,Alpha,Alpha,True,1685,3,12183,trainPhase
14,2,C1250,Gamma,Gamma,True,928,3,12183,trainPhase
0,3,A350,Alpha,Beta,False,757,3,12183,trainPhase
1,3,C1350,Gamma,Alpha,False,681,3,12183,trainPhase
2,3,A450,Alpha,Alpha,True,3604,3,12183,trainPhase
3,3,C1250,Gamma,Gamma,True,797,3,12183,trainPhase
4,3,B750,Beta,Beta,True,2216,3,12183,trainPhase
5,3,B550,Beta,Beta,True,1982,3,12183,trainPhase
6,3,C1450,Gamma,Gamma,True,1130,3,12183,trainPhase
7,3,C1050,Gamma,Gamma,True,1477,3,12183,trainPhase
8,3,C1150,Gamma,Gamma,True,908,3,12183,trainPhase
9,3,B950,Beta,Gamma,False,1164,3,12183,trainPhase
10,3,B850,Beta,Beta,True,3008,3,12183,trainPhase
11,3,A50,Alpha,Alpha,True,1450,3,12183,trainPhase
12,3,B650,Beta,Beta,True,843,3,12183,trainPhase
13,3,A150,Alpha,Alpha,True,974,3,12183,trainPhase
14,3,A250,Alpha,Beta,False,1445,3,12183,trainPhase
0,4,B950,Beta,Gamma,False,973,3,12183,trainPhase
1,4,A50,Alpha,Alpha,True,1151,3,12183,trainPhase
2,4,C1150,Gamma,Gamma,True,947,3,12183,trainPhase
3,4,A450,Alpha,Beta,False,870,3,12183,trainPhase
4,4,C1350,Gamma,Gamma,True,1293,3,12183,trainPhase
5,4,A250,Alpha,Alpha,True,1030,3,12183,trainPhase
6,4,A350,Alpha,Alpha,True,1557,3,12183,trainPhase
7,4,C1450,Gamma,Gamma,True,966,3,12183,trainPhase
8,4,B550,Beta,Alpha,False,1981,3,12183,trainPhase
9,4,B750,Beta,Gamma,False,1477,3,12183,trainPhase
10,4,B650,Beta,Beta,True,1190,3,12183,trainPhase
11,4,C1250,Gamma,Gamma,True,1133,3,12183,trainPhase
12,4,A150,Alpha,Alpha,True,964,3,12183,trainPhase
13,4,B850,Beta,Gamma,False,1104,3,12183,trainPhase
14,4,C1050,Gamma,Gamma,True,962,3,12183,trainPhase
0,0,B750,Beta,Alpha,False,6660,3,12186,trainPhase
1,0,A150,Alpha,Gamma,False,3219,3,12186,trainPhase
2,0,A350,Alpha,Gamma,False,2237,3,12186,trainPhase
3,0,C1350,Gamma,Beta,False,4414,3,12186,trainPhase
4,0,B650,Beta,Beta,True,2454,3,12186,trainPhase
5,0,A50,Alpha,Alpha,True,1819,3,12186,trainPhase
6,0,B850,Beta,Beta,True,2397,3,12186,trainPhase
7,0,C1150,Gamma,Gamma,True,1118,3,12186,trainPhase
8,0,C1450,Gamma,Gamma,True,1517,3,12186,trainPhase
9,0,B950,Beta,Beta,True,990,3,12186,trainPhase
10,0,B550,Beta,Beta,True,1381,3,12186,trainPhase
11,0,C1250,Gamma,Gamma,True,1006,3,12186,trainPhase
12,0,C1050,Gamma,Beta,False,861,3,12186,trainPhase
13,0,A450,Alpha,Alpha,True,3542,3,12186,trainPhase
14,0,A250,Alpha,Alpha,True,1245,3,12186,trainPhase
0,1,A450,Alpha,Beta,False,900,3,12186,trainPhase
1,1,B650,Beta,Beta,True,1885,3,12186,trainPhase
2,1,C1450,Gamma,Gamma,True,890,3,12186,trainPhase
3,1,C1050,Gamma,Gamma,True,2045,3,12186,trainPhase
4,1,A150,Alpha,Alpha,True,980,3,12186,trainPhase
5,1,C1350,Gamma,Gamma,True,1319,3,12186,trainPhase
6,1,B750,Beta,Beta,True,1109,3,12186,trainPhase
7,1,B850,Beta,Beta,True,763,3,12186,trainPhase
8,1,C1150,Gamma,Gamma,True,854,3,12186,trainPhase
9,1,C1250,Gamma,Gamma,True,789,3,12186,trainPhase
10,1,A350,Alpha,Alpha,True,1277,3,12186,trainPhase
11,1,A250,Alpha,Alpha,True,948,3,12186,trainPhase
12,1,A50,Alpha,Alpha,True,965,3,12186,trainPhase
13,1,B550,Beta,Beta,True,732,3,12186,trainPhase
14,1,B950,Beta,Beta,True,1374,3,12186,trainPhase
0,2,B850,Beta,Beta,True,633,3,12186,trainPhase
1,2,A450,Alpha,Alpha,True,942,3,12186,trainPhase
2,2,A350,Alpha,Alpha,True,789,3,12186,trainPhase
3,2,C1150,Gamma,Beta,False,742,3,12186,trainPhase
4,2,B750,Beta,Beta,True,798,3,12186,trainPhase
5,2,C1250,Gamma,Gamma,True,917,3,12186,trainPhase
6,2,C1350,Gamma,Gamma,True,821,3,12186,trainPhase
7,2,C1450,Gamma,Gamma,True,982,3,12186,trainPhase
8,2,B650,Beta,Beta,True,1014,3,12186,trainPhase
9,2,C1050,Gamma,Gamma,True,1416,3,12186,trainPhase
10,2,A50,Alpha,Alpha,True,854,3,12186,trainPhase
11,2,A250,Alpha,Alpha,True,706,3,12186,trainPhase
12,2,A150,Alpha,Alpha,True,551,3,12186,trainPhase
13,2,B550,Beta,Beta,True,2149,3,12186,trainPhase
14,2,B950,Beta,Gamma,False,1045,3,12186,trainPhase
0,3,A150,Alpha,Alpha,True,2029,3,12186,trainPhase
1,3,C1450,Gamma,Gamma,True,1756,3,12186,trainPhase
2,3,C1150,Gamma,Gamma,True,806,3,12186,trainPhase
3,3,A450,Alpha,Beta,False,756,3,12186,trainPhase
4,3,C1250,Gamma,Gamma,True,1404,3,12186,trainPhase
5,3,B950,Beta,Gamma,False,2019,3,12186,trainPhase
6,3,C1050,Gamma,Beta,False,2270,3,12186,trainPhase
7,3,B550,Beta,Beta,True,781,3,12186,trainPhase
8,3,A50,Alpha,Alpha,True,1637,3,12186,trainPhase
9,3,B750,Beta,Beta,True,1341,3,12186,trainPhase
10,3,B650,Beta,Beta,True,878,3,12186,trainPhase
11,3,C1350,Gamma,Gamma,True,766,3,12186,trainPhase
12,3,A350,Alpha,Beta,False,2148,3,12186,trainPhase
13,3,A250,Alpha,Alpha,True,869,3,12186,trainPhase
14,3,B850,Beta,Beta,True,3150,3,12186,trainPhase
0,4,A250,Alpha,Alpha,True,1062,3,12186,trainPhase
1,4,B650,Beta,Beta,True,1198,3,12186,trainPhase
2,4,B850,Beta,Gamma,False,2533,3,12186,trainPhase
3,4,C1150,Gamma,Gamma,True,957,3,12186,trainPhase
4,4,C1350,Gamma,Gamma,True,1525,3,12186,trainPhase
5,4,B550,Beta,Beta,True,1093,3,12186,trainPhase
6,4,C1450,Gamma,Gamma,True,1397,3,12186,trainPhase
7,4,B750,Beta,Beta,True,1093,3,12186,trainPhase
8,4,A150,Alpha,Alpha,True,774,3,12186,trainPhase
9,4,B950,Beta,Beta,True,1054,3,12186,trainPhase
10,4,A50,Alpha,Alpha,True,734,3,12186,trainPhase
11,4,A450,Alpha,Alpha,True,3285,3,12186,trainPhase
12,4,C1050,Gamma,Gamma,True,1665,3,12186,trainPhase
13,4,C1250,Gamma,Gamma,True,830,3,12186,trainPhase
14,4,A350,Alpha,Alpha,True,1774,3,12186,trainPhase
0,0,C1250,Gamma,Alpha,False,8849,3,12189,trainPhase
1,0,A50,Alpha,Alpha,True,2432,3,12189,trainPhase
2,0,C1150,Gamma,Gamma,True,1394,3,12189,trainPhase
3,0,A250,Alpha,Beta,False,1503,3,12189,trainPhase
4,0,B650,Beta,Beta,True,2907,3,12189,trainPhase
5,0,C1350,Gamma,Gamma,True,1805,3,12189,trainPhase
6,0,A450,Alpha,Beta,False,1908,3,12189,trainPhase
7,0,B550,Beta,Alpha,False,1559,3,12189,trainPhase
8,0,B750,Beta,Beta,True,1824,3,12189,trainPhase
9,0,C1450,Gamma,Gamma,True,1800,3,12189,trainPhase
10,0,B950,Beta,Gamma,False,4608,3,12189,trainPhase
11,0,B850,Beta,Beta,True,1160,3,12189,trainPhase
12,0,C1050,Gamma,Gamma,True,1325,3,12189,trainPhase
13,0,A150,Alpha,Alpha,True,1248,3,12189,trainPhase
14,0,A350,Alpha,Alpha,True,1153,3,12189,trainPhase
0,1,A450,Alpha,Alpha,True,1276,3,12189,trainPhase
1,1,C1350,Gamma,Gamma,True,1488,3,12189,trainPhase
2,1,B750,Beta,Beta,True,1892,3,12189,trainPhase
3,1,A350,Alpha,Alpha,True,2703,3,12189,trainPhase
4,1,A50,Alpha,Alpha,True,1704,3,12189,trainPhase
5,1,A150,Alpha,Alpha,True,1492,3,12189,trainPhase
6,1,B950,Beta,Beta,True,1651,3,12189,trainPhase
7,1,B650,Beta,Beta,True,1308,3,12189,trainPhase
8,1,B550,Beta,Beta,True,1266,3,12189,trainPhase
9,1,B850,Beta,Beta,True,1435,3,12189,trainPhase
10,1,C1450,Gamma,Gamma,True,1068,3,12189,trainPhase
11,1,C1050,Gamma,Gamma,True,3481,3,12189,trainPhase
12,1,C1150,Gamma,Gamma,True,1053,3,12189,trainPhase
13,1,A250,Alpha,Alpha,True,1486,3,12189,trainPhase
14,1,C1250,Gamma,Gamma,True,1644,3,12189,trainPhase
0,2,B750,Beta,Beta,True,1631,3,12189,trainPhase
1,2,C1250,Gamma,Gamma,True,1404,3,12189,trainPhase
2,2,A350,Alpha,Alpha,True,1541,3,12189,trainPhase
3,2,A250,Alpha,Alpha,True,917,3,12189,trainPhase
4,2,C1350,Gamma,Gamma,True,1291,3,12189,trainPhase
5,2,A450,Alpha,Beta,False,1071,3,12189,trainPhase
6,2,C1050,Gamma,Beta,False,2477,3,12189,trainPhase
7,2,B550,Beta,Beta,True,958,3,12189,trainPhase
8,2,A50,Alpha,Alpha,True,1081,3,12189,trainPhase
9,2,C1150,Gamma,Gamma,True,4000,3,12189,trainPhase
10,2,A150,Alpha,Alpha,True,1239,3,12189,trainPhase
11,2,B950,Beta,Beta,True,2095,3,12189,trainPhase
12,2,B850,Beta,Beta,True,926,3,12189,trainPhase
13,2,C1450,Gamma,Gamma,True,1161,3,12189,trainPhase
14,2,B650,Beta,Beta,True,1158,3,12189,trainPhase
0,3,C1350,Gamma,Gamma,True,1142,3,12189,trainPhase
1,3,B850,Beta,Beta,True,1118,3,12189,trainPhase
2,3,B550,Beta,Beta,True,1332,3,12189,trainPhase
3,3,A50,Alpha,Alpha,True,948,3,12189,trainPhase
4,3,B750,Beta,Beta,True,1079,3,12189,trainPhase
5,3,C1450,Gamma,Gamma,True,961,3,12189,trainPhase
6,3,A450,Alpha,Beta,False,1697,3,12189,trainPhase
7,3,A150,Alpha,Alpha,True,888,3,12189,trainPhase
8,3,A350,Alpha,Alpha,True,1194,3,12189,trainPhase
9,3,C1250,Gamma,Gamma,True,1852,3,12189,trainPhase
10,3,B650,Beta,Beta,True,1758,3,12189,trainPhase
11,3,C1050,Gamma,Gamma,True,2539,3,12189,trainPhase
12,3,A250,Alpha,Alpha,True,990,3,12189,trainPhase
13,3,C1150,Gamma,Gamma,True,1591,3,12189,trainPhase
14,3,B950,Beta,Beta,True,3604,3,12189,trainPhase
0,4,B950,Beta,Beta,True,1725,3,12189,trainPhase
1,4,B650,Beta,Beta,True,1699,3,12189,trainPhase
2,4,B550,Beta,Beta,True,1678,3,12189,trainPhase
3,4,C1050,Gamma,Beta,False,1692,3,12189,trainPhase
4,4,B750,Beta,Beta,True,1434,3,12189,trainPhase
5,4,A350,Alpha,Alpha,True,2278,3,12189,trainPhase
6,4,A450,Alpha,Alpha,True,1227,3,12189,trainPhase
7,4,C1250,Gamma,Gamma,True,1125,3,12189,trainPhase
8,4,C1150,Gamma,Gamma,True,1129,3,12189,trainPhase
9,4,C1450,Gamma,Gamma,True,986,3,12189,trainPhase
10,4,B850,Beta,Beta,True,1989,3,12189,trainPhase
11,4,C1350,Gamma,Gamma,True,1114,3,12189,trainPhase
12,4,A250,Alpha,Alpha,True,1310,3,12189,trainPhase
13,4,A50,Alpha,Alpha,True,845,3,12189,trainPhase
14,4,A150,Alpha,Alpha,True,1205,3,12189,trainPhase
0,0,A250,Alpha,Gamma,False,8474,3,12195,trainPhase
1,0,A450,Alpha,Alpha,True,3537,3,12195,trainPhase
2,0,A50,Alpha,Alpha,True,2632,3,12195,trainPhase
3,0,C1350,Gamma,Alpha,False,2254,3,12195,trainPhase
4,0,B850,Beta,Beta,True,2699,3,12195,trainPhase
5,0,B750,Beta,Beta,True,2721,3,12195,trainPhase
6,0,B550,Beta,Alpha,False,2567,3,12195,trainPhase
7,0,C1150,Gamma,Gamma,True,1794,3,12195,trainPhase
8,0,A350,Alpha,Alpha,True,2474,3,12195,trainPhase
9,0,B950,Beta,Gamma,False,1927,3,12195,trainPhase
10,0,B650,Beta,Beta,True,2051,3,12195,trainPhase
11,0,C1050,Gamma,Beta,False,3056,3,12195,trainPhase
12,0,C1250,Gamma,Gamma,True,1536,3,12195,trainPhase
13,0,C1450,Gamma,Gamma,True,1864,3,12195,trainPhase
14,0,A150,Alpha,Alpha,True,1750,3,12195,trainPhase
0,1,C1050,Gamma,Beta,False,3083,3,12195,trainPhase
1,1,B850,Beta,Beta,True,2125,3,12195,trainPhase
2,1,C1350,Gamma,Gamma,True,1593,3,12195,trainPhase
3,1,A150,Alpha,Alpha,True,1468,3,12195,trainPhase
4,1,B950,Beta,Beta,True,1893,3,12195,trainPhase
5,1,C1450,Gamma,Gamma,True,1297,3,12195,trainPhase
6,1,A250,Alpha,Alpha,True,1303,3,12195,trainPhase
7,1,B650,Beta,Beta,True,1360,3,12195,trainPhase
8,1,A50,Alpha,Alpha,True,1360,3,12195,trainPhase
9,1,C1150,Gamma,Gamma,True,4301,3,12195,trainPhase
10,1,A450,Alpha,Beta,False,2070,3,12195,trainPhase
11,1,C1250,Gamma,Gamma,True,1704,3,12195,trainPhase
12,1,A350,Alpha,Beta,False,2373,3,12195,trainPhase
13,1,B550,Beta,Beta,True,1170,3,12195,trainPhase
14,1,B750,Beta,Beta,True,1585,3,12195,trainPhase
0,2,A350,Alpha,Alpha,True,1216,3,12195,trainPhase
1,2,C1250,Gamma,Gamma,True,1400,3,12195,trainPhase
2,2,B750,Beta,Beta,True,2244,3,12195,trainPhase
3,2,C1450,Gamma,Gamma,True,1645,3,12195,trainPhase
4,2,C1350,Gamma,Gamma,True,1385,3,12195,trainPhase
5,2,A250,Alpha,Alpha,True,1355,3,12195,trainPhase
6,2,B850,Beta,Beta,True,1878,3,12195,trainPhase
7,2,A50,Alpha,Alpha,True,1132,3,12195,trainPhase
8,2,B550,Beta,Alpha,False,1507,3,12195,trainPhase
9,2,C1050,Gamma,Gamma,True,3123,3,12195,trainPhase
10,2,B650,Beta,Beta,True,1885,3,12195,trainPhase
11,2,B950,Beta,Gamma,False,1202,3,12195,trainPhase
12,2,A450,Alpha,Beta,False,1846,3,12195,trainPhase
13,2,C1150,Gamma,Gamma,True,1490,3,12195,trainPhase
14,2,A150,Alpha,Alpha,True,1013,3,12195,trainPhase
0,3,B550,Beta,Beta,True,1129,3,12195,trainPhase
1,3,C1450,Gamma,Gamma,True,1081,3,12195,trainPhase
2,3,A50,Alpha,Alpha,True,1272,3,12195,trainPhase
3,3,A150,Alpha,Alpha,True,1397,3,12195,trainPhase
4,3,A350,Alpha,Beta,False,2493,3,12195,trainPhase
5,3,A450,Alpha,Beta,False,1064,3,12195,trainPhase
6,3,C1250,Gamma,Gamma,True,1085,3,12195,trainPhase
7,3,C1350,Gamma,Gamma,True,1077,3,12195,trainPhase
8,3,B950,Beta,Gamma,False,2441,3,12195,trainPhase
9,3,A250,Alpha,Alpha,True,1398,3,12195,trainPhase
10,3,C1050,Gamma,Gamma,True,2417,3,12195,trainPhase
11,3,B750,Beta,Beta,True,2495,3,12195,trainPhase
12,3,C1150,Gamma,Gamma,True,1571,3,12195,trainPhase
13,3,B650,Beta,Beta,True,1203,3,12195,trainPhase
14,3,B850,Beta,Beta,True,2046,3,12195,trainPhase
0,4,B750,Beta,Beta,True,1072,3,12195,trainPhase
1,4,C1450,Gamma,Gamma,True,1281,3,12195,trainPhase
2,4,A350,Alpha,Alpha,True,1561,3,12195,trainPhase
3,4,A450,Alpha,Alpha,True,1068,3,12195,trainPhase
4,4,B950,Beta,Beta,True,1037,3,12195,trainPhase
5,4,A250,Alpha,Alpha,True,1221,3,12195,trainPhase
6,4,C1050,Gamma,Gamma,True,2973,3,12195,trainPhase
7,4,B850,Beta,Gamma,False,1060,3,12195,trainPhase
8,4,C1150,Gamma,Gamma,True,1621,3,12195,trainPhase
9,4,C1250,Gamma,Gamma,True,1036,3,12195,trainPhase
10,4,A150,Alpha,Alpha,True,1233,3,12195,trainPhase
11,4,B650,Beta,Beta,True,904,3,12195,trainPhase
12,4,C1350,Gamma,Gamma,True,1029,3,12195,trainPhase
13,4,A50,Alpha,Alpha,True,1077,3,12195,trainPhase
14,4,B550,Beta,Beta,True,1353,3,12195,trainPhase
0,0,C1050,Gamma,Gamma,True,3561,3,12198,trainPhase
1,0,B750,Beta,Gamma,False,1580,3,12198,trainPhase
2,0,B850,Beta,Beta,True,1231,3,12198,trainPhase
3,0,B650,Beta,Alpha,False,1139,3,12198,trainPhase
4,0,A250,Alpha,Alpha,True,1544,3,12198,trainPhase
5,0,B950,Beta,Gamma,False,1555,3,12198,trainPhase
6,0,A450,Alpha,Alpha,True,1415,3,12198,trainPhase
7,0,A50,Alpha,Alpha,True,1328,3,12198,trainPhase
8,0,C1350,Gamma,Gamma,True,1069,3,12198,trainPhase
9,0,C1150,Gamma,Beta,False,1342,3,12198,trainPhase
10,0,B550,Beta,Beta,True,783,3,12198,trainPhase
11,0,A350,Alpha,Beta,False,1586,3,12198,trainPhase
12,0,A150,Alpha,Alpha,True,1162,3,12198,trainPhase
13,0,C1250,Gamma,Gamma,True,1078,3,12198,trainPhase
14,0,C1450,Gamma,Gamma,True,1032,3,12198,trainPhase
0,1,B650,Beta,Beta,True,1308,3,12198,trainPhase
1,1,B950,Beta,Beta,True,1600,3,12198,trainPhase
2,1,B850,Beta,Beta,True,971,3,12198,trainPhase
3,1,A450,Alpha,Alpha,True,1038,3,12198,trainPhase
4,1,A150,Alpha,Alpha,True,863,3,12198,trainPhase
5,1,C1250,Gamma,Gamma,True,1523,3,12198,trainPhase
6,1,A250,Alpha,Alpha,True,1472,3,12198,trainPhase
7,1,B550,Beta,Beta,True,883,3,12198,trainPhase
8,1,C1350,Gamma,Gamma,True,763,3,12198,trainPhase
9,1,C1450,Gamma,Gamma,True,907,3,12198,trainPhase
10,1,C1050,Gamma,Gamma,True,2149,3,12198,trainPhase
11,1,A50,Alpha,Alpha,True,1069,3,12198,trainPhase
12,1,C1150,Gamma,Beta,False,1089,3,12198,trainPhase
13,1,B750,Beta,Beta,True,912,3,12198,trainPhase
14,1,A350,Alpha,Alpha,True,949,3,12198,trainPhase
0,2,B750,Beta,Beta,True,931,3,12198,trainPhase
1,2,B950,Beta,Gamma,False,812,3,12198,trainPhase
2,2,A450,Alpha,Beta,False,994,3,12198,trainPhase
3,2,A250,Alpha,Alpha,True,938,3,12198,trainPhase
4,2,A150,Alpha,Alpha,True,825,3,12198,trainPhase
5,2,A50,Alpha,Alpha,True,1952,3,12198,trainPhase
6,2,B650,Beta,Beta,True,868,3,12198,trainPhase
7,2,C1250,Gamma,Gamma,True,919,3,12198,trainPhase
8,2,B850,Beta,Gamma,False,1456,3,12198,trainPhase
9,2,B550,Beta,Beta,True,1052,3,12198,trainPhase
10,2,C1050,Gamma,Beta,False,1251,3,12198,trainPhase
11,2,C1350,Gamma,Gamma,True,1194,3,12198,trainPhase
12,2,C1450,Gamma,Gamma,True,765,3,12198,trainPhase
13,2,A350,Alpha,Beta,False,1205,3,12198,trainPhase
14,2,C1150,Gamma,Beta,False,1039,3,12198,trainPhase
0,3,A350,Alpha,Beta,False,1087,3,12198,trainPhase
1,3,B750,Beta,Beta,True,865,3,12198,trainPhase
2,3,C1150,Gamma,Gamma,True,779,3,12198,trainPhase
3,3,C1350,Gamma,Gamma,True,829,3,12198,trainPhase
4,3,B650,Beta,Beta,True,1166,3,12198,trainPhase
5,3,B850,Beta,Gamma,False,1227,3,12198,trainPhase
6,3,A50,Alpha,Alpha,True,1020,3,12198,trainPhase
7,3,C1250,Gamma,Gamma,True,2045,3,12198,trainPhase
8,3,A150,Alpha,Alpha,True,1242,3,12198,trainPhase
9,3,A450,Alpha,Beta,False,1862,3,12198,trainPhase
10,3,A250,Alpha,Alpha,True,884,3,12198,trainPhase
11,3,C1050,Gamma,Gamma,True,1630,3,12198,trainPhase
12,3,B950,Beta,Gamma,False,1118,3,12198,trainPhase
13,3,C1450,Gamma,Gamma,True,1074,3,12198,trainPhase
14,3,B550,Beta,Beta,True,1057,3,12198,trainPhase
0,4,B850,Beta,Gamma,False,1840,3,12198,trainPhase
1,4,C1150,Gamma,Gamma,True,884,3,12198,trainPhase
2,4,B650,Beta,Beta,True,1557,3,12198,trainPhase
3,4,A450,Alpha,Beta,False,1151,3,12198,trainPhase
4,4,A350,Alpha,Alpha,True,1063,3,12198,trainPhase
5,4,C1250,Gamma,Gamma,True,1373,3,12198,trainPhase
6,4,C1050,Gamma,Gamma,True,1837,3,12198,trainPhase
7,4,A50,Alpha,Alpha,True,941,3,12198,trainPhase
8,4,B750,Beta,Beta,True,2180,3,12198,trainPhase
9,4,C1450,Gamma,Gamma,True,1013,3,12198,trainPhase
10,4,C1350,Gamma,Gamma,True,1346,3,12198,trainPhase
11,4,A250,Alpha,Alpha,True,1152,3,12198,trainPhase
12,4,B950,Beta,Gamma,False,1047,3,12198,trainPhase
13,4,B550,Beta,Beta,True,1015,3,12198,trainPhase
14,4,A150,Alpha,Alpha,True,1332,3,12198,trainPhase
0,0,B750,Beta,Beta,True,5315,3,12201,trainPhase
1,0,B850,Beta,Beta,True,1219,3,12201,trainPhase
2,0,A150,Alpha,Alpha,True,1093,3,12201,trainPhase
3,0,B950,Beta,Gamma,False,1429,3,12201,trainPhase
4,0,B550,Beta,Beta,True,2070,3,12201,trainPhase
5,0,B650,Beta,Beta,True,770,3,12201,trainPhase
6,0,C1250,Gamma,Gamma,True,1207,3,12201,trainPhase
7,0,A450,Alpha,Beta,False,1043,3,12201,trainPhase
8,0,C1050,Gamma,Gamma,True,1529,3,12201,trainPhase
9,0,C1350,Gamma,Gamma,True,917,3,12201,trainPhase
10,0,C1150,Gamma,Gamma,True,1072,3,12201,trainPhase
11,0,A350,Alpha,Beta,False,1075,3,12201,trainPhase
12,0,A250,Alpha,Alpha,True,888,3,12201,trainPhase
13,0,A50,Alpha,Alpha,True,867,3,12201,trainPhase
14,0,C1450,Gamma,Gamma,True,810,3,12201,trainPhase
0,1,C1250,Gamma,Gamma,True,768,3,12201,trainPhase
1,1,B850,Beta,Beta,True,1509,3,12201,trainPhase
2,1,B550,Beta,Beta,True,1211,3,12201,trainPhase
3,1,C1450,Gamma,Gamma,True,762,3,12201,trainPhase
4,1,A50,Alpha,Alpha,True,796,3,12201,trainPhase
5,1,A450,Alpha,Alpha,True,1498,3,12201,trainPhase
6,1,C1350,Gamma,Gamma,True,928,3,12201,trainPhase
7,1,B650,Beta,Beta,True,968,3,12201,trainPhase
8,1,B750,Beta,Beta,True,1436,3,12201,trainPhase
9,1,C1150,Gamma,Gamma,True,735,3,12201,trainPhase
10,1,B950,Beta,Beta,True,2741,3,12201,trainPhase
11,1,C1050,Gamma,Gamma,True,1379,3,12201,trainPhase
12,1,A150,Alpha,Alpha,True,749,3,12201,trainPhase
13,1,A250,Alpha,Alpha,True,846,3,12201,trainPhase
14,1,A350,Alpha,Alpha,True,1216,3,12201,trainPhase
0,2,C1250,Gamma,Gamma,True,1589,3,12201,trainPhase
1,2,A250,Alpha,Alpha,True,1273,3,12201,trainPhase
2,2,C1450,Gamma,Gamma,True,918,3,12201,trainPhase
3,2,C1350,Gamma,Gamma,True,916,3,12201,trainPhase
4,2,C1150,Gamma,Gamma,True,827,3,12201,trainPhase
5,2,C1050,Gamma,Beta,False,1818,3,12201,trainPhase
6,2,B950,Beta,Beta,True,1274,3,12201,trainPhase
7,2,A50,Alpha,Alpha,True,792,3,12201,trainPhase
8,2,B850,Beta,Beta,True,1236,3,12201,trainPhase
9,2,B550,Beta,Beta,True,696,3,12201,trainPhase
10,2,B650,Beta,Beta,True,733,3,12201,trainPhase
11,2,B750,Beta,Beta,True,666,3,12201,trainPhase
12,2,A150,Alpha,Alpha,True,847,3,12201,trainPhase
13,2,A450,Alpha,Beta,False,1437,3,12201,trainPhase
14,2,A350,Alpha,Alpha,True,1120,3,12201,trainPhase
0,3,A350,Alpha,Alpha,True,745,3,12201,trainPhase
1,3,C1250,Gamma,Gamma,True,1469,3,12201,trainPhase
2,3,C1150,Gamma,Gamma,True,1104,3,12201,trainPhase
3,3,B550,Beta,Beta,True,892,3,12201,trainPhase
4,3,C1350,Gamma,Gamma,True,830,3,12201,trainPhase
5,3,A150,Alpha,Alpha,True,1375,3,12201,trainPhase
6,3,B950,Beta,Beta,True,1094,3,12201,trainPhase
7,3,B850,Beta,Beta,True,701,3,12201,trainPhase
8,3,A50,Alpha,Alpha,True,834,3,12201,trainPhase
9,3,A450,Alpha,Beta,False,1234,3,12201,trainPhase
10,3,A250,Alpha,Alpha,True,853,3,12201,trainPhase
11,3,C1050,Gamma,Beta,False,1004,3,12201,trainPhase
12,3,C1450,Gamma,Gamma,True,1124,3,12201,trainPhase
13,3,B650,Beta,Beta,True,717,3,12201,trainPhase
14,3,B750,Beta,Beta,True,644,3,12201,trainPhase
0,4,B650,Beta,Beta,True,774,3,12201,trainPhase
1,4,C1150,Gamma,Gamma,True,907,3,12201,trainPhase
2,4,B550,Beta,Beta,True,685,3,12201,trainPhase
3,4,B750,Beta,Beta,True,845,3,12201,trainPhase
4,4,C1450,Gamma,Gamma,True,684,3,12201,trainPhase
5,4,A250,Alpha,Alpha,True,771,3,12201,trainPhase
6,4,A50,Alpha,Alpha,True,653,3,12201,trainPhase
7,4,A450,Alpha,Alpha,True,845,3,12201,trainPhase
8,4,C1250,Gamma,Gamma,True,2022,3,12201,trainPhase
9,4,B950,Beta,Beta,True,1798,3,12201,trainPhase
10,4,B850,Beta,Beta,True,718,3,12201,trainPhase
11,4,C1350,Gamma,Gamma,True,710,3,12201,trainPhase
12,4,C1050,Gamma,Gamma,True,871,3,12201,trainPhase
13,4,A150,Alpha,Alpha,True,859,3,12201,trainPhase
14,4,A350,Alpha,Alpha,True,1920,3,12201,trainPhase
0,0,C1150,Gamma,Gamma,True,7364,3,12135,trainPhase
1,0,B850,Beta,Beta,True,4852,3,12135,trainPhase
2,0,B750,Beta,Beta,True,2548,3,12135,trainPhase
3,0,C1350,Gamma,Alpha,False,2308,3,12135,trainPhase
4,0,A150,Alpha,Alpha,True,1467,3,12135,trainPhase
5,0,A250,Alpha,Alpha,True,2144,3,12135,trainPhase
6,0,A350,Alpha,Alpha,True,2439,3,12135,trainPhase
7,0,C1450,Gamma,Gamma,True,1045,3,12135,trainPhase
8,0,B650,Beta,Beta,True,1434,3,12135,trainPhase
9,0,A450,Alpha,Alpha,True,1036,3,12135,trainPhase
10,0,B550,Beta,Beta,True,1055,3,12135,trainPhase
11,0,C1050,Gamma,Gamma,True,1125,3,12135,trainPhase
12,0,A50,Alpha,Alpha,True,1164,3,12135,trainPhase
13,0,C1250,Gamma,Gamma,True,1232,3,12135,trainPhase
14,0,B950,Beta,Beta,True,1557,3,12135,trainPhase
0,1,C1050,Gamma,Gamma,True,2178,3,12135,trainPhase
1,1,B550,Beta,Beta,True,1840,3,12135,trainPhase
2,1,C1450,Gamma,Gamma,True,1344,3,12135,trainPhase
3,1,B950,Beta,Beta,True,1520,3,12135,trainPhase
4,1,A50,Alpha,Alpha,True,1182,3,12135,trainPhase
5,1,A350,Alpha,Alpha,True,1452,3,12135,trainPhase
6,1,B650,Beta,Beta,True,912,3,12135,trainPhase
7,1,C1150,Gamma,Gamma,True,774,3,12135,trainPhase
8,1,C1350,Gamma,Gamma,True,1397,3,12135,trainPhase
9,1,B750,Beta,Beta,True,2342,3,12135,trainPhase
10,1,A250,Alpha,Alpha,True,1205,3,12135,trainPhase
11,1,C1250,Gamma,Gamma,True,1266,3,12135,trainPhase
12,1,A150,Alpha,Alpha,True,1342,3,12135,trainPhase
13,1,A450,Alpha,Alpha,True,2718,3,12135,trainPhase
14,1,B850,Beta,Beta,True,1190,3,12135,trainPhase
0,2,A50,Alpha,Alpha,True,1462,3,12135,trainPhase
1,2,A350,Alpha,Alpha,True,1166,3,12135,trainPhase
2,2,A250,Alpha,Alpha,True,862,3,12135,trainPhase
3,2,C1450,Gamma,Gamma,True,1165,3,12135,trainPhase
4,2,C1150,Gamma,Gamma,True,1195,3,12135,trainPhase
5,2,A150,Alpha,Alpha,True,1341,3,12135,trainPhase
6,2,B750,Beta,Beta,True,2558,3,12135,trainPhase
7,2,C1050,Gamma,Gamma,True,1381,3,12135,trainPhase
8,2,B950,Beta,Gamma,False,1477,3,12135,trainPhase
9,2,C1250,Gamma,Gamma,True,1197,3,12135,trainPhase
10,2,B550,Beta,Alpha,False,2102,3,12135,trainPhase
11,2,A450,Alpha,Alpha,True,1548,3,12135,trainPhase
12,2,B850,Beta,Beta,True,2077,3,12135,trainPhase
13,2,C1350,Gamma,Gamma,True,1077,3,12135,trainPhase
14,2,B650,Beta,Beta,True,2501,3,12135,trainPhase
0,3,C1050,Gamma,Gamma,True,1926,3,12135,trainPhase
1,3,A450,Alpha,Alpha,True,1070,3,12135,trainPhase
2,3,B850,Beta,Beta,True,1333,3,12135,trainPhase
3,3,A250,Alpha,Alpha,True,1190,3,12135,trainPhase
4,3,B550,Beta,Alpha,False,2397,3,12135,trainPhase
5,3,B750,Beta,Beta,True,2359,3,12135,trainPhase
6,3,C1350,Gamma,Gamma,True,1134,3,12135,trainPhase
7,3,B950,Beta,Beta,True,1389,3,12135,trainPhase
8,3,C1450,Gamma,Gamma,True,1700,3,12135,trainPhase
9,3,A150,Alpha,Alpha,True,1132,3,12135,trainPhase
10,3,A50,Alpha,Alpha,True,1150,3,12135,trainPhase
11,3,C1250,Gamma,Gamma,True,1862,3,12135,trainPhase
12,3,A350,Alpha,Alpha,True,797,3,12135,trainPhase
13,3,C1150,Gamma,Gamma,True,1678,3,12135,trainPhase
14,3,B650,Beta,Beta,True,1933,3,12135,trainPhase
0,4,A250,Alpha,Alpha,True,1325,3,12135,trainPhase
1,4,A50,Alpha,Alpha,True,1085,3,12135,trainPhase
2,4,B650,Beta,Beta,True,1254,3,12135,trainPhase
3,4,C1250,Gamma,Gamma,True,1949,3,12135,trainPhase
4,4,C1450,Gamma,Gamma,True,1085,3,12135,trainPhase
5,4,A150,Alpha,Alpha,True,1628,3,12135,trainPhase
6,4,B950,Beta,Beta,True,1509,3,12135,trainPhase
7,4,A450,Alpha,Alpha,True,1284,3,12135,trainPhase
8,4,C1050,Gamma,Beta,False,1231,3,12135,trainPhase
9,4,A350,Alpha,Alpha,True,1580,3,12135,trainPhase
10,4,C1350,Gamma,Gamma,True,1173,3,12135,trainPhase
11,4,B750,Beta,Beta,True,1836,3,12135,trainPhase
12,4,C1150,Gamma,Gamma,True,1316,3,12135,trainPhase
13,4,B850,Beta,Beta,True,1093,3,12135,trainPhase
14,4,B550,Beta,Alpha,False,942,3,12135,trainPhase
0,0,C1350,Gamma,Alpha,False,4420,3,12217,trainPhase
1,0,A350,Alpha,Gamma,False,1319,3,12217,trainPhase
2,0,A450,Alpha,Beta,False,1120,3,12217,trainPhase
3,0,C1450,Gamma,Gamma,True,1147,3,12217,trainPhase
4,0,B750,Beta,Beta,True,835,3,12217,trainPhase
5,0,B950,Beta,Beta,True,791,3,12217,trainPhase
6,0,C1250,Gamma,Gamma,True,1110,3,12217,trainPhase
7,0,B650,Beta,Beta,True,1413,3,12217,trainPhase
8,0,C1150,Gamma,Gamma,True,828,3,12217,trainPhase
9,0,A250,Alpha,Alpha,True,934,3,12217,trainPhase
10,0,C1050,Gamma,Gamma,True,716,3,12217,trainPhase
11,0,A150,Alpha,Alpha,True,1320,3,12217,trainPhase
12,0,B550,Beta,Beta,True,828,3,12217,trainPhase
13,0,B850,Beta,Gamma,False,949,3,12217,trainPhase
14,0,A50,Alpha,Alpha,True,1099,3,12217,trainPhase
0,1,C1450,Gamma,Gamma,True,772,3,12217,trainPhase
1,1,B950,Beta,Beta,True,717,3,12217,trainPhase
2,1,A250,Alpha,Beta,False,597,3,12217,trainPhase
3,1,B650,Beta,Beta,True,655,3,12217,trainPhase
4,1,A450,Alpha,Beta,False,690,3,12217,trainPhase
5,1,C1050,Gamma,Beta,False,1758,3,12217,trainPhase
6,1,B550,Beta,Beta,True,901,3,12217,trainPhase
7,1,C1150,Gamma,Gamma,True,797,3,12217,trainPhase
8,1,A350,Alpha,Alpha,True,1187,3,12217,trainPhase
9,1,C1350,Gamma,Gamma,True,917,3,12217,trainPhase
10,1,B850,Beta,Beta,True,901,3,12217,trainPhase
11,1,B750,Beta,Beta,True,719,3,12217,trainPhase
12,1,C1250,Gamma,Gamma,True,1000,3,12217,trainPhase
13,1,A150,Alpha,Alpha,True,989,3,12217,trainPhase
14,1,A50,Alpha,Alpha,True,710,3,12217,trainPhase
0,2,B550,Beta,Beta,True,710,3,12217,trainPhase
1,2,B650,Beta,Beta,True,865,3,12217,trainPhase
2,2,B950,Beta,Gamma,False,1598,3,12217,trainPhase
3,2,A50,Alpha,Alpha,True,905,3,12217,trainPhase
4,2,A250,Alpha,Beta,False,742,3,12217,trainPhase
5,2,C1050,Gamma,Beta,False,605,3,12217,trainPhase
6,2,A450,Alpha,Beta,False,710,3,12217,trainPhase
7,2,B750,Beta,Beta,True,1950,3,12217,trainPhase
8,2,C1250,Gamma,Gamma,True,581,3,12217,trainPhase
9,2,C1450,Gamma,Gamma,True,671,3,12217,trainPhase
10,2,B850,Beta,Beta,True,1802,3,12217,trainPhase
11,2,C1150,Gamma,Beta,False,1237,3,12217,trainPhase
12,2,C1350,Gamma,Gamma,True,718,3,12217,trainPhase
13,2,A150,Alpha,Alpha,True,789,3,12217,trainPhase
14,2,A350,Alpha,Alpha,True,2436,3,12217,trainPhase
0,3,B550,Beta,Beta,True,790,3,12217,trainPhase
1,3,B950,Beta,Beta,True,1797,3,12217,trainPhase
2,3,A450,Alpha,Beta,False,742,3,12217,trainPhase
3,3,C1350,Gamma,Gamma,True,812,3,12217,trainPhase
4,3,A250,Alpha,Alpha,True,1220,3,12217,trainPhase
5,3,C1450,Gamma,Gamma,True,742,3,12217,trainPhase
6,3,A350,Alpha,Beta,False,1017,3,12217,trainPhase
7,3,C1150,Gamma,Beta,False,1477,3,12217,trainPhase
8,3,B750,Beta,Beta,True,782,3,12217,trainPhase
9,3,B850,Beta,Beta,True,960,3,12217,trainPhase
10,3,B650,Beta,Beta,True,1203,3,12217,trainPhase
11,3,A150,Alpha,Alpha,True,696,3,12217,trainPhase
12,3,A50,Alpha,Alpha,True,715,3,12217,trainPhase
13,3,C1050,Gamma,Gamma,True,2157,3,12217,trainPhase
14,3,C1250,Gamma,Gamma,True,718,3,12217,trainPhase
0,4,B950,Beta,Gamma,False,2084,3,12217,trainPhase
1,4,A150,Alpha,Alpha,True,765,3,12217,trainPhase
2,4,A450,Alpha,Beta,False,2895,3,12217,trainPhase
3,4,A50,Alpha,Alpha,True,946,3,12217,trainPhase
4,4,C1150,Gamma,Gamma,True,1146,3,12217,trainPhase
5,4,A350,Alpha,Beta,False,596,3,12217,trainPhase
6,4,A250,Alpha,Alpha,True,1245,3,12217,trainPhase
7,4,C1050,Gamma,Beta,False,965,3,12217,trainPhase
8,4,B650,Beta,Beta,True,710,3,12217,trainPhase
9,4,C1350,Gamma,Gamma,True,1158,3,12217,trainPhase
10,4,B850,Beta,Beta,True,1566,3,12217,trainPhase
11,4,C1250,Gamma,Gamma,True,1388,3,12217,trainPhase
12,4,C1450,Gamma,Gamma,True,1067,3,12217,trainPhase
13,4,B550,Beta,Beta,True,2941,3,12217,trainPhase
14,4,B750,Beta,Beta,True,637,3,12217,trainPhase
0,0,C1450,Gamma,Gamma,True,5515,3,12220,trainPhase
1,0,B750,Beta,Beta,True,3794,3,12220,trainPhase
2,0,C1150,Gamma,Alpha,False,1781,3,12220,trainPhase
3,0,A450,Alpha,Alpha,True,1137,3,12220,trainPhase
4,0,A50,Alpha,Alpha,True,1370,3,12220,trainPhase
5,0,C1350,Gamma,Gamma,True,1399,3,12220,trainPhase
6,0,C1250,Gamma,Gamma,True,2453,3,12220,trainPhase
7,0,B850,Beta,Beta,True,829,3,12220,trainPhase
8,0,A350,Alpha,Alpha,True,1670,3,12220,trainPhase
9,0,B950,Beta,Beta,True,1488,3,12220,trainPhase
10,0,A250,Alpha,Alpha,True,1313,3,12220,trainPhase
11,0,C1050,Gamma,Gamma,True,642,3,12220,trainPhase
12,0,B650,Beta,Beta,True,1126,3,12220,trainPhase
13,0,A150,Alpha,Alpha,True,1030,3,12220,trainPhase
14,0,B550,Beta,Beta,True,1509,3,12220,trainPhase
0,1,A350,Alpha,Alpha,True,1605,3,12220,trainPhase
1,1,B650,Beta,Beta,True,1021,3,12220,trainPhase
2,1,C1150,Gamma,Gamma,True,829,3,12220,trainPhase
3,1,C1050,Gamma,Gamma,True,1022,3,12220,trainPhase
4,1,A150,Alpha,Alpha,True,1054,3,12220,trainPhase
5,1,B950,Beta,Gamma,False,2142,3,12220,trainPhase
6,1,A50,Alpha,Alpha,True,1064,3,12220,trainPhase
7,1,A250,Alpha,Beta,False,590,3,12220,trainPhase
8,1,B750,Beta,Beta,True,1488,3,12220,trainPhase
9,1,B850,Beta,Beta,True,998,3,12220,trainPhase
10,1,C1250,Gamma,Gamma,True,715,3,12220,trainPhase
11,1,B550,Beta,Beta,True,1091,3,12220,trainPhase
12,1,C1350,Gamma,Gamma,True,1117,3,12220,trainPhase
13,1,A450,Alpha,Beta,False,974,3,12220,trainPhase
14,1,C1450,Gamma,Gamma,True,2702,3,12220,trainPhase
0,2,C1450,Gamma,Gamma,True,787,3,12220,trainPhase
1,2,A150,Alpha,Alpha,True,1157,3,12220,trainPhase
2,2,A350,Alpha,Alpha,True,1278,3,12220,trainPhase
3,2,B550,Beta,Beta,True,3109,3,12220,trainPhase
4,2,C1350,Gamma,Gamma,True,966,3,12220,trainPhase
5,2,C1250,Gamma,Gamma,True,886,3,12220,trainPhase
6,2,B650,Beta,Beta,True,1045,3,12220,trainPhase
7,2,B850,Beta,Beta,True,1101,3,12220,trainPhase
8,2,C1150,Gamma,Gamma,True,1053,3,12220,trainPhase
9,2,A250,Alpha,Alpha,True,1261,3,12220,trainPhase
10,2,B950,Beta,Gamma,False,3477,3,12220,trainPhase
11,2,A50,Alpha,Alpha,True,921,3,12220,trainPhase
12,2,C1050,Gamma,Gamma,True,1187,3,12220,trainPhase
13,2,A450,Alpha,Beta,False,1030,3,12220,trainPhase
14,2,B750,Beta,Beta,True,2471,3,12220,trainPhase
0,3,A50,Alpha,Alpha,True,1117,3,12220,trainPhase
1,3,C1050,Gamma,Gamma,True,3541,3,12220,trainPhase
2,3,A350,Alpha,Alpha,True,1973,3,12220,trainPhase
3,3,A250,Alpha,Alpha,True,890,3,12220,trainPhase
4,3,C1250,Gamma,Gamma,True,1092,3,12220,trainPhase
5,3,C1450,Gamma,Gamma,True,760,3,12220,trainPhase
6,3,C1150,Gamma,Gamma,True,1478,3,12220,trainPhase
7,3,B650,Beta,Beta,True,1437,3,12220,trainPhase
8,3,B550,Beta,Beta,True,1611,3,12220,trainPhase
9,3,B850,Beta,Beta,True,1106,3,12220,trainPhase
10,3,B950,Beta,Beta,True,814,3,12220,trainPhase
11,3,A450,Alpha,Beta,False,1192,3,12220,trainPhase
12,3,C1350,Gamma,Gamma,True,2854,3,12220,trainPhase
13,3,B750,Beta,Beta,True,1438,3,12220,trainPhase
14,3,A150,Alpha,Alpha,True,1022,3,12220,trainPhase
0,4,B750,Beta,Beta,True,1078,3,12220,trainPhase
1,4,C1350,Gamma,Gamma,True,743,3,12220,trainPhase
2,4,A150,Alpha,Alpha,True,980,3,12220,trainPhase
3,4,B550,Beta,Beta,True,1733,3,12220,trainPhase
4,4,A50,Alpha,Alpha,True,892,3,12220,trainPhase
5,4,A250,Alpha,Alpha,True,930,3,12220,trainPhase
6,4,C1250,Gamma,Gamma,True,1046,3,12220,trainPhase
7,4,C1450,Gamma,Gamma,True,934,3,12220,trainPhase
8,4,A450,Alpha,Alpha,True,3699,3,12220,trainPhase
9,4,B950,Beta,Beta,True,1277,3,12220,trainPhase
10,4,B850,Beta,Beta,True,741,3,12220,trainPhase
11,4,B650,Beta,Beta,True,1212,3,12220,trainPhase
12,4,C1150,Gamma,Gamma,True,3205,3,12220,trainPhase
13,4,C1050,Gamma,Gamma,True,1813,3,12220,trainPhase
14,4,A350,Alpha,Alpha,True,1590,3,12220,trainPhase
0,0,C1450,Gamma,Alpha,False,6636,3,12223,trainPhase
1,0,A150,Alpha,Beta,False,1368,3,12223,trainPhase
2,0,A50,Alpha,Beta,False,2501,3,12223,trainPhase
3,0,C1050,Gamma,Gamma,True,1611,3,12223,trainPhase
4,0,B550,Beta,Beta,True,4443,3,12223,trainPhase
5,0,B650,Beta,Beta,True,2662,3,12223,trainPhase
6,0,A450,Alpha,Alpha,True,2512,3,12223,trainPhase
7,0,C1150,Gamma,Gamma,True,913,3,12223,trainPhase
8,0,A250,Alpha,Alpha,True,2083,3,12223,trainPhase
9,0,C1350,Gamma,Gamma,True,1154,3,12223,trainPhase
10,0,B750,Beta,Beta,True,1268,3,12223,trainPhase
11,0,A350,Alpha,Alpha,True,1825,3,12223,trainPhase
12,0,B950,Beta,Gamma,False,886,3,12223,trainPhase
13,0,C1250,Gamma,Gamma,True,1372,3,12223,trainPhase
14,0,B850,Beta,Beta,True,1443,3,12223,trainPhase
0,1,A350,Alpha,Alpha,True,1047,3,12223,trainPhase
1,1,C1350,Gamma,Gamma,True,757,3,12223,trainPhase
2,1,A450,Alpha,Beta,False,1310,3,12223,trainPhase
3,1,B850,Beta,Beta,True,1078,3,12223,trainPhase
4,1,A50,Alpha,Alpha,True,861,3,12223,trainPhase
5,1,B950,Beta,Gamma,False,1040,3,12223,trainPhase
6,1,C1050,Gamma,Beta,False,510,3,12223,trainPhase
7,1,C1150,Gamma,Alpha,False,709,3,12223,trainPhase
8,1,C1450,Gamma,Gamma,True,1148,3,12223,trainPhase
9,1,B650,Beta,Beta,True,1294,3,12223,trainPhase
10,1,C1250,Gamma,Gamma,True,1447,3,12223,trainPhase
11,1,A250,Alpha,Alpha,True,1237,3,12223,trainPhase
12,1,B550,Beta,Beta,True,677,3,12223,trainPhase
13,1,B750,Beta,Beta,True,1542,3,12223,trainPhase
14,1,A150,Alpha,Alpha,True,725,3,12223,trainPhase
0,2,A250,Alpha,Alpha,True,2720,3,12223,trainPhase
1,2,A450,Alpha,Beta,False,767,3,12223,trainPhase
2,2,B650,Beta,Alpha,False,517,3,12223,trainPhase
3,2,A150,Alpha,Alpha,True,927,3,12223,trainPhase
4,2,B850,Beta,Gamma,False,2022,3,12223,trainPhase
5,2,C1150,Gamma,Gamma,True,907,3,12223,trainPhase
6,2,C1250,Gamma,Gamma,True,1025,3,12223,trainPhase
7,2,C1050,Gamma,Beta,False,1195,3,12223,trainPhase
8,2,B550,Beta,Beta,True,685,3,12223,trainPhase
9,2,A50,Alpha,Alpha,True,719,3,12223,trainPhase
10,2,C1450,Gamma,Gamma,True,790,3,12223,trainPhase
11,2,B950,Beta,Gamma,False,1712,3,12223,trainPhase
12,2,C1350,Gamma,Gamma,True,846,3,12223,trainPhase
13,2,B750,Beta,Beta,True,1325,3,12223,trainPhase
14,2,A350,Alpha,Beta,False,1514,3,12223,trainPhase
0,3,B750,Beta,Beta,True,1373,3,12223,trainPhase
1,3,B550,Beta,Beta,True,886,3,12223,trainPhase
2,3,B650,Beta,Beta,True,1657,3,12223,trainPhase
3,3,A450,Alpha,Beta,False,1902,3,12223,trainPhase
4,3,C1150,Gamma,Gamma,True,811,3,12223,trainPhase
5,3,A250,Alpha,Beta,False,877,3,12223,trainPhase
6,3,C1450,Gamma,Gamma,True,701,3,12223,trainPhase
7,3,C1250,Gamma,Gamma,True,903,3,12223,trainPhase
8,3,A350,Alpha,Alpha,True,1778,3,12223,trainPhase
9,3,B950,Beta,Gamma,False,941,3,12223,trainPhase
10,3,C1350,Gamma,Gamma,True,796,3,12223,trainPhase
11,3,B850,Beta,Gamma,False,1845,3,12223,trainPhase
12,3,A50,Alpha,Alpha,True,733,3,12223,trainPhase
13,3,C1050,Gamma,Beta,False,699,3,12223,trainPhase
14,3,A150,Alpha,Alpha,True,900,3,12223,trainPhase
0,4,A150,Alpha,Alpha,True,853,3,12223,trainPhase
1,4,A350,Alpha,Beta,False,1457,3,12223,trainPhase
2,4,C1450,Gamma,Gamma,True,847,3,12223,trainPhase
3,4,C1050,Gamma,Beta,False,1294,3,12223,trainPhase
4,4,C1250,Gamma,Gamma,True,3370,3,12223,trainPhase
5,4,A450,Alpha,Beta,False,850,3,12223,trainPhase
6,4,B650,Beta,Beta,True,833,3,12223,trainPhase
7,4,B550,Beta,Beta,True,7995,3,12223,trainPhase
8,4,B750,Beta,Gamma,False,1515,3,12223,trainPhase
9,4,B850,Beta,Beta,True,806,3,12223,trainPhase
10,4,A50,Alpha,Alpha,True,862,3,12223,trainPhase
11,4,C1150,Gamma,Gamma,True,1023,3,12223,trainPhase
12,4,A250,Alpha,Beta,False,2532,3,12223,trainPhase
13,4,C1350,Gamma,Gamma,True,910,3,12223,trainPhase
14,4,B950,Beta,Beta,True,2373,3,12223,trainPhase
0,0,B650,Beta,Alpha,False,10484,3,12226,trainPhase
1,0,A150,Alpha,Beta,False,2580,3,12226,trainPhase
2,0,C1250,Gamma,Gamma,True,1412,3,12226,trainPhase
3,0,C1050,Gamma,Gamma,True,2693,3,12226,trainPhase
4,0,B550,Beta,Beta,True,2533,3,12226,trainPhase
5,0,C1350,Gamma,Gamma,True,1700,3,12226,trainPhase
6,0,A450,Alpha,Beta,False,1374,3,12226,trainPhase
7,0,B750,Beta,Alpha,False,1404,3,12226,trainPhase
8,0,B950,Beta,Gamma,False,2254,3,12226,trainPhase
9,0,A350,Alpha,Beta,False,3453,3,12226,trainPhase
10,0,A250,Alpha,Alpha,True,2638,3,12226,trainPhase
11,0,A50,Alpha,Alpha,True,2037,3,12226,trainPhase
12,0,C1150,Gamma,Gamma,True,1445,3,12226,trainPhase
13,0,B850,Beta,Beta,True,2492,3,12226,trainPhase
14,0,C1450,Gamma,Gamma,True,1221,3,12226,trainPhase
0,1,A250,Alpha,Alpha,True,1918,3,12226,trainPhase
1,1,B950,Beta,Gamma,False,2932,3,12226,trainPhase
2,1,B750,Beta,Alpha,False,2501,3,12226,trainPhase
3,1,B550,Beta,Beta,True,1813,3,12226,trainPhase
4,1,B850,Beta,Gamma,False,2917,3,12226,trainPhase
5,1,A150,Alpha,Alpha,True,1246,3,12226,trainPhase
6,1,C1250,Gamma,Gamma,True,1295,3,12226,trainPhase
7,1,A450,Alpha,Beta,False,1397,3,12226,trainPhase
8,1,C1150,Gamma,Gamma,True,1317,3,12226,trainPhase
9,1,A50,Alpha,Alpha,True,1146,3,12226,trainPhase
10,1,C1050,Gamma,Beta,False,3909,3,12226,trainPhase
11,1,B650,Beta,Beta,True,2219,3,12226,trainPhase
12,1,C1450,Gamma,Gamma,True,1086,3,12226,trainPhase
13,1,C1350,Gamma,Gamma,True,1350,3,12226,trainPhase
14,1,A350,Alpha,Alpha,True,1525,3,12226,trainPhase
0,2,C1050,Gamma,Gamma,True,2341,3,12226,trainPhase
1,2,A250,Alpha,Alpha,True,1310,3,12226,trainPhase
2,2,B550,Beta,Beta,True,1933,3,12226,trainPhase
3,2,A150,Alpha,Alpha,True,1141,3,12226,trainPhase
4,2,A450,Alpha,Beta,False,3014,3,12226,trainPhase
5,2,C1350,Gamma,Gamma,True,1173,3,12226,trainPhase
6,2,A50,Alpha,Alpha,True,1078,3,12226,trainPhase
7,2,B950,Beta,Beta,True,2110,3,12226,trainPhase
8,2,B750,Beta,Alpha,False,2342,3,12226,trainPhase
9,2,C1250,Gamma,Gamma,True,1021,3,12226,trainPhase
10,2,C1150,Gamma,Gamma,True,1422,3,12226,trainPhase
11,2,B850,Beta,Beta,True,1182,3,12226,trainPhase
12,2,A350,Alpha,Alpha,True,877,3,12226,trainPhase
13,2,B650,Beta,Alpha,False,1837,3,12226,trainPhase
14,2,C1450,Gamma,Gamma,True,1013,3,12226,trainPhase
0,3,B850,Beta,Beta,True,5309,3,12226,trainPhase
1,3,A50,Alpha,Alpha,True,966,3,12226,trainPhase
2,3,B650,Beta,Beta,True,3397,3,12226,trainPhase
3,3,A450,Alpha,Alpha,True,884,3,12226,trainPhase
4,3,A150,Alpha,Alpha,True,1021,3,12226,trainPhase
5,3,C1050,Gamma,Beta,False,1700,3,12226,trainPhase
6,3,C1150,Gamma,Gamma,True,1148,3,12226,trainPhase
7,3,C1350,Gamma,Gamma,True,877,3,12226,trainPhase
8,3,A250,Alpha,Alpha,True,1548,3,12226,trainPhase
9,3,A350,Alpha,Alpha,True,990,3,12226,trainPhase
10,3,B750,Beta,Beta,True,773,3,12226,trainPhase
11,3,B550,Beta,Alpha,False,1509,3,12226,trainPhase
12,3,B950,Beta,Gamma,False,1870,3,12226,trainPhase
13,3,C1450,Gamma,Gamma,True,949,3,12226,trainPhase
14,3,C1250,Gamma,Gamma,True,1325,3,12226,trainPhase
0,4,C1350,Gamma,Gamma,True,892,3,12226,trainPhase
1,4,B750,Beta,Beta,True,1557,3,12226,trainPhase
2,4,A450,Alpha,Alpha,True,1077,3,12226,trainPhase
3,4,A350,Alpha,Alpha,True,878,3,12226,trainPhase
4,4,A150,Alpha,Alpha,True,735,3,12226,trainPhase
5,4,B550,Beta,Alpha,False,1558,3,12226,trainPhase
6,4,B950,Beta,Beta,True,1174,3,12226,trainPhase
7,4,B650,Beta,Alpha,False,1157,3,12226,trainPhase
8,4,C1450,Gamma,Gamma,True,1134,3,12226,trainPhase
9,4,C1050,Gamma,Gamma,True,2478,3,12226,trainPhase
10,4,C1250,Gamma,Gamma,True,894,3,12226,trainPhase
11,4,B850,Beta,Beta,True,2469,3,12226,trainPhase
12,4,A250,Alpha,Alpha,True,854,3,12226,trainPhase
13,4,C1150,Gamma,Gamma,True,1006,3,12226,trainPhase
14,4,A50,Alpha,Alpha,True,742,3,12226,trainPhase
0,0,A350,Alpha,Alpha,True,5489,3,12229,trainPhase
1,0,C1150,Gamma,Gamma,True,2137,3,12229,trainPhase
2,0,A250,Alpha,Alpha,True,1320,3,12229,trainPhase
3,0,B750,Beta,Beta,True,1564,3,12229,trainPhase
4,0,C1450,Gamma,Gamma,True,1094,3,12229,trainPhase
5,0,C1350,Gamma,Gamma,True,1911,3,12229,trainPhase
6,0,A150,Alpha,Alpha,True,1378,3,12229,trainPhase
7,0,B650,Beta,Beta,True,749,3,12229,trainPhase
8,0,B850,Beta,Beta,True,888,3,12229,trainPhase
9,0,B550,Beta,Beta,True,1671,3,12229,trainPhase
10,0,A450,Alpha,Beta,False,1131,3,12229,trainPhase
11,0,C1050,Gamma,Gamma,True,3310,3,12229,trainPhase
12,0,A50,Alpha,Alpha,True,1060,3,12229,trainPhase
13,0,C1250,Gamma,Gamma,True,1487,3,12229,trainPhase
14,0,B950,Beta,Gamma,False,3407,3,12229,trainPhase
0,1,C1150,Gamma,Beta,False,3780,3,12229,trainPhase
1,1,A150,Alpha,Alpha,True,1214,3,12229,trainPhase
2,1,B950,Beta,Beta,True,2323,3,12229,trainPhase
3,1,A350,Alpha,Alpha,True,1241,3,12229,trainPhase
4,1,C1250,Gamma,Gamma,True,1472,3,12229,trainPhase
5,1,A50,Alpha,Alpha,True,1028,3,12229,trainPhase
6,1,B850,Beta,Beta,True,1007,3,12229,trainPhase
7,1,B550,Beta,Beta,True,692,3,12229,trainPhase
8,1,A250,Alpha,Alpha,True,852,3,12229,trainPhase
9,1,B750,Beta,Beta,True,733,3,12229,trainPhase
10,1,C1350,Gamma,Gamma,True,705,3,12229,trainPhase
11,1,C1050,Gamma,Beta,False,1808,3,12229,trainPhase
12,1,B650,Beta,Beta,True,1780,3,12229,trainPhase
13,1,C1450,Gamma,Gamma,True,1275,3,12229,trainPhase
14,1,A450,Alpha,Alpha,True,1784,3,12229,trainPhase
0,2,A350,Alpha,Alpha,True,1059,3,12229,trainPhase
1,2,A250,Alpha,Alpha,True,1294,3,12229,trainPhase
2,2,C1250,Gamma,Gamma,True,1533,3,12229,trainPhase
3,2,C1050,Gamma,Gamma,True,1659,3,12229,trainPhase
4,2,A50,Alpha,Alpha,True,1109,3,12229,trainPhase
5,2,B650,Beta,Alpha,False,1035,3,12229,trainPhase
6,2,B550,Beta,Beta,True,641,3,12229,trainPhase
7,2,A150,Alpha,Alpha,True,1252,3,12229,trainPhase
8,2,B950,Beta,Beta,True,1000,3,12229,trainPhase
9,2,A450,Alpha,Beta,False,755,3,12229,trainPhase
10,2,B750,Beta,Alpha,False,1747,3,12229,trainPhase
11,2,C1150,Gamma,Gamma,True,1237,3,12229,trainPhase
12,2,B850,Beta,Beta,True,2007,3,12229,trainPhase
13,2,C1350,Gamma,Gamma,True,1228,3,12229,trainPhase
14,2,C1450,Gamma,Gamma,True,891,3,12229,trainPhase
0,3,C1350,Gamma,Gamma,True,925,3,12229,trainPhase
1,3,C1450,Gamma,Gamma,True,837,3,12229,trainPhase
2,3,A350,Alpha,Alpha,True,1357,3,12229,trainPhase
3,3,C1150,Gamma,Gamma,True,1782,3,12229,trainPhase
4,3,A450,Alpha,Alpha,True,1111,3,12229,trainPhase
5,3,B650,Beta,Alpha,False,1455,3,12229,trainPhase
6,3,B950,Beta,Beta,True,1174,3,12229,trainPhase
7,3,B750,Beta,Beta,True,790,3,12229,trainPhase
8,3,A150,Alpha,Alpha,True,858,3,12229,trainPhase
9,3,C1250,Gamma,Gamma,True,1516,3,12229,trainPhase
10,3,B850,Beta,Beta,True,1370,3,12229,trainPhase
11,3,A50,Alpha,Alpha,True,804,3,12229,trainPhase
12,3,A250,Alpha,Alpha,True,814,3,12229,trainPhase
13,3,C1050,Gamma,Beta,False,5752,3,12229,trainPhase
14,3,B550,Beta,Beta,True,1082,3,12229,trainPhase
0,4,C1050,Gamma,Beta,False,1431,3,12229,trainPhase
1,4,B950,Beta,Beta,True,1557,3,12229,trainPhase
2,4,B850,Beta,Beta,True,1110,3,12229,trainPhase
3,4,B650,Beta,Beta,True,6532,3,12229,trainPhase
4,4,B550,Beta,Beta,True,1029,3,12229,trainPhase
5,4,A450,Alpha,Alpha,True,1557,3,12229,trainPhase
6,4,C1250,Gamma,Gamma,True,1477,3,12229,trainPhase
7,4,A150,Alpha,Alpha,True,1146,3,12229,trainPhase
8,4,A250,Alpha,Alpha,True,1063,3,12229,trainPhase
9,4,A350,Alpha,Alpha,True,692,3,12229,trainPhase
10,4,C1450,Gamma,Gamma,True,845,3,12229,trainPhase
11,4,C1350,Gamma,Gamma,True,1236,3,12229,trainPhase
12,4,A50,Alpha,Alpha,True,1128,3,12229,trainPhase
13,4,B750,Beta,Beta,True,1213,3,12229,trainPhase
14,4,C1150,Gamma,Gamma,True,1371,3,12229,trainPhase
0,0,B550,Beta,Alpha,False,3413,3,12251,trainPhase
1,0,C1050,Gamma,Beta,False,1468,3,12251,trainPhase
2,0,A50,Alpha,Alpha,True,1390,3,12251,trainPhase
3,0,C1450,Gamma,Gamma,True,1466,3,12251,trainPhase
4,0,C1350,Gamma,Gamma,True,1417,3,12251,trainPhase
5,0,B950,Beta,Beta,True,839,3,12251,trainPhase
6,0,B650,Beta,Beta,True,2117,3,12251,trainPhase
7,0,A450,Alpha,Alpha,True,845,3,12251,trainPhase
8,0,C1150,Gamma,Beta,False,1733,3,12251,trainPhase
9,0,B850,Beta,Beta,True,1533,3,12251,trainPhase
10,0,C1250,Gamma,Gamma,True,1133,3,12251,trainPhase
11,0,A350,Alpha,Alpha,True,1746,3,12251,trainPhase
12,0,B750,Beta,Beta,True,1300,3,12251,trainPhase
13,0,A150,Alpha,Alpha,True,1206,3,12251,trainPhase
14,0,A250,Alpha,Alpha,True,2096,3,12251,trainPhase
0,1,B550,Beta,Beta,True,868,3,12251,trainPhase
1,1,C1050,Gamma,Gamma,True,733,3,12251,trainPhase
2,1,B850,Beta,Beta,True,636,3,12251,trainPhase
3,1,B950,Beta,Beta,True,805,3,12251,trainPhase
4,1,A250,Alpha,Alpha,True,1189,3,12251,trainPhase
5,1,B650,Beta,Beta,True,990,3,12251,trainPhase
6,1,C1350,Gamma,Gamma,True,1030,3,12251,trainPhase
7,1,C1250,Gamma,Gamma,True,966,3,12251,trainPhase
8,1,A150,Alpha,Alpha,True,990,3,12251,trainPhase
9,1,A450,Alpha,Beta,False,813,3,12251,trainPhase
10,1,C1450,Gamma,Gamma,True,846,3,12251,trainPhase
11,1,A50,Alpha,Alpha,True,851,3,12251,trainPhase
12,1,B750,Beta,Beta,True,1357,3,12251,trainPhase
13,1,A350,Alpha,Beta,False,924,3,12251,trainPhase
14,1,C1150,Gamma,Gamma,True,1038,3,12251,trainPhase
0,2,A50,Alpha,Alpha,True,829,3,12251,trainPhase
1,2,A150,Alpha,Alpha,True,1182,3,12251,trainPhase
2,2,C1050,Gamma,Gamma,True,1717,3,12251,trainPhase
3,2,B950,Beta,Gamma,False,931,3,12251,trainPhase
4,2,B750,Beta,Beta,True,950,3,12251,trainPhase
5,2,C1150,Gamma,Gamma,True,1292,3,12251,trainPhase
6,2,B550,Beta,Beta,True,841,3,12251,trainPhase
7,2,C1250,Gamma,Gamma,True,892,3,12251,trainPhase
8,2,C1350,Gamma,Gamma,True,717,3,12251,trainPhase
9,2,B850,Beta,Beta,True,1125,3,12251,trainPhase
10,2,A350,Alpha,Alpha,True,1868,3,12251,trainPhase
11,2,C1450,Gamma,Gamma,True,884,3,12251,trainPhase
12,2,A250,Alpha,Beta,False,969,3,12251,trainPhase
13,2,A450,Alpha,Beta,False,1317,3,12251,trainPhase
14,2,B650,Beta,Gamma,False,1997,3,12251,trainPhase
0,3,B550,Beta,Beta,True,946,3,12251,trainPhase
1,3,B650,Beta,Beta,True,717,3,12251,trainPhase
2,3,B750,Beta,Beta,True,757,3,12251,trainPhase
3,3,A250,Alpha,Alpha,True,712,3,12251,trainPhase
4,3,B950,Beta,Gamma,False,1549,3,12251,trainPhase
5,3,C1250,Gamma,Gamma,True,885,3,12251,trainPhase
6,3,A50,Alpha,Alpha,True,1189,3,12251,trainPhase
7,3,A450,Alpha,Beta,False,904,3,12251,trainPhase
8,3,B850,Beta,Gamma,False,1621,3,12251,trainPhase
9,3,C1450,Gamma,Gamma,True,1022,3,12251,trainPhase
10,3,C1150,Gamma,Gamma,True,2886,3,12251,trainPhase
11,3,C1050,Gamma,Gamma,True,944,3,12251,trainPhase
12,3,A150,Alpha,Alpha,True,1301,3,12251,trainPhase
13,3,C1350,Gamma,Gamma,True,1128,3,12251,trainPhase
14,3,A350,Alpha,Alpha,True,1237,3,12251,trainPhase
0,4,B850,Beta,Beta,True,925,3,12251,trainPhase
1,4,C1050,Gamma,Gamma,True,902,3,12251,trainPhase
2,4,B750,Beta,Beta,True,989,3,12251,trainPhase
3,4,A250,Alpha,Alpha,True,701,3,12251,trainPhase
4,4,B550,Beta,Beta,True,1624,3,12251,trainPhase
5,4,B950,Beta,Gamma,False,829,3,12251,trainPhase
6,4,C1150,Gamma,Gamma,True,1078,3,12251,trainPhase
7,4,C1250,Gamma,Gamma,True,968,3,12251,trainPhase
8,4,A150,Alpha,Alpha,True,917,3,12251,trainPhase
9,4,B650,Beta,Beta,True,1086,3,12251,trainPhase
10,4,C1350,Gamma,Gamma,True,1086,3,12251,trainPhase
11,4,C1450,Gamma,Gamma,True,1086,3,12251,trainPhase
12,4,A350,Alpha,Beta,False,1356,3,12251,trainPhase
13,4,A50,Alpha,Alpha,True,1350,3,12251,trainPhase
14,4,A450,Alpha,Alpha,True,955,3,12251,trainPhase
0,0,A50,Alpha,Alpha,True,3973,3,12254,trainPhase
1,0,C1150,Gamma,Gamma,True,1762,3,12254,trainPhase
2,0,C1350,Gamma,Gamma,True,1357,3,12254,trainPhase
3,0,B550,Beta,Gamma,False,1651,3,12254,trainPhase
4,0,B750,Beta,Gamma,False,1152,3,12254,trainPhase
5,0,A150,Alpha,Alpha,True,1009,3,12254,trainPhase
6,0,C1450,Gamma,Gamma,True,1142,3,12254,trainPhase
7,0,B950,Beta,Beta,True,1308,3,12254,trainPhase
8,0,B650,Beta,Beta,True,830,3,12254,trainPhase
9,0,A350,Alpha,Beta,False,1324,3,12254,trainPhase
10,0,A450,Alpha,Beta,False,925,3,12254,trainPhase
11,0,C1050,Gamma,Gamma,True,2214,3,12254,trainPhase
12,0,B850,Beta,Beta,True,1693,3,12254,trainPhase
13,0,A250,Alpha,Alpha,True,1067,3,12254,trainPhase
14,0,C1250,Gamma,Gamma,True,1001,3,12254,trainPhase
0,1,C1350,Gamma,Gamma,True,858,3,12254,trainPhase
1,1,A450,Alpha,Beta,False,973,3,12254,trainPhase
2,1,C1050,Gamma,Gamma,True,2227,3,12254,trainPhase
3,1,B750,Beta,Beta,True,1166,3,12254,trainPhase
4,1,C1450,Gamma,Gamma,True,1079,3,12254,trainPhase
5,1,B950,Beta,Beta,True,1666,3,12254,trainPhase
6,1,A50,Alpha,Alpha,True,1131,3,12254,trainPhase
7,1,A350,Alpha,Beta,False,1059,3,12254,trainPhase
8,1,A150,Alpha,Alpha,True,1004,3,12254,trainPhase
9,1,B850,Beta,Beta,True,863,3,12254,trainPhase
10,1,C1250,Gamma,Gamma,True,817,3,12254,trainPhase
11,1,B550,Beta,Beta,True,869,3,12254,trainPhase
12,1,C1150,Gamma,Gamma,True,818,3,12254,trainPhase
13,1,A250,Alpha,Alpha,True,956,3,12254,trainPhase
14,1,B650,Beta,Beta,True,664,3,12254,trainPhase
0,2,C1250,Gamma,Gamma,True,770,3,12254,trainPhase
1,2,C1350,Gamma,Gamma,True,738,3,12254,trainPhase
2,2,B950,Beta,Beta,True,1814,3,12254,trainPhase
3,2,B850,Beta,Beta,True,2081,3,12254,trainPhase
4,2,C1450,Gamma,Gamma,True,774,3,12254,trainPhase
5,2,B750,Beta,Beta,True,716,3,12254,trainPhase
6,2,A350,Alpha,Alpha,True,1746,3,12254,trainPhase
7,2,C1050,Gamma,Beta,False,645,3,12254,trainPhase
8,2,B550,Beta,Beta,True,758,3,12254,trainPhase
9,2,A450,Alpha,Beta,False,782,3,12254,trainPhase
10,2,B650,Beta,Beta,True,1382,3,12254,trainPhase
11,2,A50,Alpha,Alpha,True,913,3,12254,trainPhase
12,2,C1150,Gamma,Gamma,True,959,3,12254,trainPhase
13,2,A150,Alpha,Alpha,True,1312,3,12254,trainPhase
14,2,A250,Alpha,Alpha,True,942,3,12254,trainPhase
0,3,C1450,Gamma,Gamma,True,855,3,12254,trainPhase
1,3,A50,Alpha,Alpha,True,973,3,12254,trainPhase
2,3,A350,Alpha,Beta,False,767,3,12254,trainPhase
3,3,C1150,Gamma,Gamma,True,1110,3,12254,trainPhase
4,3,B750,Beta,Beta,True,720,3,12254,trainPhase
5,3,A250,Alpha,Alpha,True,1174,3,12254,trainPhase
6,3,C1350,Gamma,Gamma,True,739,3,12254,trainPhase
7,3,A450,Alpha,Alpha,True,2312,3,12254,trainPhase
8,3,B650,Beta,Beta,True,774,3,12254,trainPhase
9,3,A150,Alpha,Alpha,True,860,3,12254,trainPhase
10,3,C1050,Gamma,Gamma,True,1672,3,12254,trainPhase
11,3,C1250,Gamma,Gamma,True,668,3,12254,trainPhase
12,3,B850,Beta,Gamma,False,1636,3,12254,trainPhase
13,3,B950,Beta,Gamma,False,885,3,12254,trainPhase
14,3,B550,Beta,Beta,True,903,3,12254,trainPhase
0,4,B950,Beta,Gamma,False,811,3,12254,trainPhase
1,4,C1450,Gamma,Gamma,True,844,3,12254,trainPhase
2,4,B850,Beta,Beta,True,922,3,12254,trainPhase
3,4,B650,Beta,Beta,True,775,3,12254,trainPhase
4,4,A350,Alpha,Beta,False,1101,3,12254,trainPhase
5,4,A150,Alpha,Alpha,True,1029,3,12254,trainPhase
6,4,B550,Beta,Beta,True,1185,3,12254,trainPhase
7,4,B750,Beta,Beta,True,1368,3,12254,trainPhase
8,4,A250,Alpha,Alpha,True,1067,3,12254,trainPhase
9,4,C1350,Gamma,Gamma,True,835,3,12254,trainPhase
10,4,C1050,Gamma,Gamma,True,1134,3,12254,trainPhase
11,4,A450,Alpha,Beta,False,704,3,12254,trainPhase
12,4,C1250,Gamma,Gamma,True,1311,3,12254,trainPhase
13,4,A50,Alpha,Alpha,True,862,3,12254,trainPhase
14,4,C1150,Gamma,Gamma,True,1391,3,12254,trainPhase
0,0,A250,Alpha,Gamma,False,8457,3,12257,trainPhase
1,0,C1050,Gamma,Gamma,True,4064,3,12257,trainPhase
2,0,A350,Alpha,Beta,False,1934,3,12257,trainPhase
3,0,A450,Alpha,Alpha,True,1493,3,12257,trainPhase
4,0,C1350,Gamma,Beta,False,2425,3,12257,trainPhase
5,0,C1250,Gamma,Gamma,True,1527,3,12257,trainPhase
6,0,A50,Alpha,Beta,False,1133,3,12257,trainPhase
7,0,B950,Beta,Alpha,False,666,3,12257,trainPhase
8,0,B850,Beta,Beta,True,3603,3,12257,trainPhase
9,0,B750,Beta,Beta,True,2180,3,12257,trainPhase
10,0,A150,Alpha,Alpha,True,1767,3,12257,trainPhase
11,0,B650,Beta,Beta,True,1822,3,12257,trainPhase
12,0,B550,Beta,Beta,True,1191,3,12257,trainPhase
13,0,C1150,Gamma,Gamma,True,1554,3,12257,trainPhase
14,0,C1450,Gamma,Gamma,True,908,3,12257,trainPhase
0,1,A350,Alpha,Alpha,True,3182,3,12257,trainPhase
1,1,C1350,Gamma,Gamma,True,1430,3,12257,trainPhase
2,1,A150,Alpha,Alpha,True,1242,3,12257,trainPhase
3,1,B950,Beta,Beta,True,1444,3,12257,trainPhase
4,1,B750,Beta,Beta,True,1188,3,12257,trainPhase
5,1,B650,Beta,Beta,True,2743,3,12257,trainPhase
6,1,A250,Alpha,Alpha,True,1009,3,12257,trainPhase
7,1,C1050,Gamma,Gamma,True,2916,3,12257,trainPhase
8,1,B850,Beta,Beta,True,4045,3,12257,trainPhase
9,1,B550,Beta,Alpha,False,2957,3,12257,trainPhase
10,1,C1150,Gamma,Gamma,True,1886,3,12257,trainPhase
11,1,C1250,Gamma,Gamma,True,1200,3,12257,trainPhase
12,1,C1450,Gamma,Gamma,True,1030,3,12257,trainPhase
13,1,A450,Alpha,Alpha,True,3083,3,12257,trainPhase
14,1,A50,Alpha,Alpha,True,1105,3,12257,trainPhase
0,2,C1150,Gamma,Beta,False,1573,3,12257,trainPhase
1,2,A150,Alpha,Alpha,True,1334,3,12257,trainPhase
2,2,C1250,Gamma,Gamma,True,910,3,12257,trainPhase
3,2,C1050,Gamma,Gamma,True,1207,3,12257,trainPhase
4,2,B750,Beta,Beta,True,1406,3,12257,trainPhase
5,2,B650,Beta,Beta,True,802,3,12257,trainPhase
6,2,B950,Beta,Gamma,False,2199,3,12257,trainPhase
7,2,A350,Alpha,Alpha,True,1270,3,12257,trainPhase
8,2,B850,Beta,Beta,True,1926,3,12257,trainPhase
9,2,A250,Alpha,Alpha,True,993,3,12257,trainPhase
10,2,B550,Beta,Alpha,False,1947,3,12257,trainPhase
11,2,A450,Alpha,Beta,False,792,3,12257,trainPhase
12,2,C1350,Gamma,Gamma,True,1676,3,12257,trainPhase
13,2,A50,Alpha,Alpha,True,1247,3,12257,trainPhase
14,2,C1450,Gamma,Gamma,True,1149,3,12257,trainPhase
0,3,C1050,Gamma,Beta,False,1844,3,12257,trainPhase
1,3,B850,Beta,Gamma,False,1285,3,12257,trainPhase
2,3,B950,Beta,Beta,True,2140,3,12257,trainPhase
3,3,A50,Alpha,Alpha,True,1305,3,12257,trainPhase
4,3,A450,Alpha,Alpha,True,859,3,12257,trainPhase
5,3,B550,Beta,Alpha,False,1069,3,12257,trainPhase
6,3,B650,Beta,Beta,True,927,3,12257,trainPhase
7,3,A350,Alpha,Alpha,True,1233,3,12257,trainPhase
8,3,C1250,Gamma,Gamma,True,1278,3,12257,trainPhase
9,3,A250,Alpha,Alpha,True,1597,3,12257,trainPhase
10,3,A150,Alpha,Alpha,True,1067,3,12257,trainPhase
11,3,C1150,Gamma,Gamma,True,1157,3,12257,trainPhase
12,3,C1450,Gamma,Gamma,True,861,3,12257,trainPhase
13,3,C1350,Gamma,Gamma,True,872,3,12257,trainPhase
14,3,B750,Beta,Beta,True,978,3,12257,trainPhase
0,4,A250,Alpha,Alpha,True,2078,3,12257,trainPhase
1,4,A350,Alpha,Alpha,True,989,3,12257,trainPhase
2,4,C1250,Gamma,Gamma,True,927,3,12257,trainPhase
3,4,C1350,Gamma,Gamma,True,622,3,12257,trainPhase
4,4,B850,Beta,Beta,True,1038,3,12257,trainPhase
5,4,C1150,Gamma,Gamma,True,2742,3,12257,trainPhase
6,4,C1050,Gamma,Beta,False,8131,3,12257,trainPhase
7,4,B950,Beta,Gamma,False,1071,3,12257,trainPhase
8,4,A150,Alpha,Alpha,True,1123,3,12257,trainPhase
9,4,B550,Beta,Beta,True,1790,3,12257,trainPhase
10,4,A450,Alpha,Alpha,True,1981,3,12257,trainPhase
11,4,B650,Beta,Beta,True,1663,3,12257,trainPhase
12,4,A50,Alpha,Alpha,True,1453,3,12257,trainPhase
13,4,C1450,Gamma,Gamma,True,863,3,12257,trainPhase
14,4,B750,Beta,Beta,True,2371,3,12257,trainPhase
0,0,C1350,Gamma,Alpha,False,3508,3,12274,trainPhase
1,0,C1250,Gamma,Gamma,True,2256,3,12274,trainPhase
2,0,A350,Alpha,Gamma,False,2394,3,12274,trainPhase
3,0,C1150,Gamma,Gamma,True,1958,3,12274,trainPhase
4,0,A150,Alpha,Alpha,True,1524,3,12274,trainPhase
5,0,B850,Beta,Beta,True,1645,3,12274,trainPhase
6,0,C1450,Gamma,Gamma,True,1685,3,12274,trainPhase
7,0,B650,Beta,Beta,True,1709,3,12274,trainPhase
8,0,C1050,Gamma,Gamma,True,2461,3,12274,trainPhase
9,0,A50,Alpha,Alpha,True,2291,3,12274,trainPhase
10,0,A250,Alpha,Alpha,True,1962,3,12274,trainPhase
11,0,B950,Beta,Beta,True,915,3,12274,trainPhase
12,0,B550,Beta,Beta,True,1691,3,12274,trainPhase
13,0,A450,Alpha,Beta,False,2192,3,12274,trainPhase
14,0,B750,Beta,Beta,True,1428,3,12274,trainPhase
0,1,A150,Alpha,Alpha,True,845,3,12274,trainPhase
1,1,C1350,Gamma,Gamma,True,1441,3,12274,trainPhase
2,1,B650,Beta,Beta,True,3252,3,12274,trainPhase
3,1,B950,Beta,Gamma,False,2486,3,12274,trainPhase
4,1,A450,Alpha,Alpha,True,2947,3,12274,trainPhase
5,1,C1450,Gamma,Gamma,True,961,3,12274,trainPhase
6,1,B850,Beta,Beta,True,4607,3,12274,trainPhase
7,1,B550,Beta,Alpha,False,1181,3,12274,trainPhase
8,1,C1250,Gamma,Gamma,True,1655,3,12274,trainPhase
9,1,A350,Alpha,Alpha,True,1509,3,12274,trainPhase
10,1,A50,Alpha,Alpha,True,996,3,12274,trainPhase
11,1,C1150,Gamma,Gamma,True,1217,3,12274,trainPhase
12,1,A250,Alpha,Alpha,True,1946,3,12274,trainPhase
13,1,C1050,Gamma,Gamma,True,1389,3,12274,trainPhase
14,1,B750,Beta,Beta,True,2061,3,12274,trainPhase
0,2,C1450,Gamma,Gamma,True,903,3,12274,trainPhase
1,2,B750,Beta,Beta,True,5025,3,12274,trainPhase
2,2,C1250,Gamma,Gamma,True,2722,3,12274,trainPhase
3,2,A50,Alpha,Alpha,True,1102,3,12274,trainPhase
4,2,A350,Alpha,Alpha,True,1241,3,12274,trainPhase
5,2,B550,Beta,Beta,True,1775,3,12274,trainPhase
6,2,A450,Alpha,Alpha,True,1293,3,12274,trainPhase
7,2,C1150,Gamma,Gamma,True,746,3,12274,trainPhase
8,2,C1050,Gamma,Gamma,True,3923,3,12274,trainPhase
9,2,B850,Beta,Beta,True,1917,3,12274,trainPhase
10,2,B650,Beta,Beta,True,737,3,12274,trainPhase
11,2,C1350,Gamma,Gamma,True,1038,3,12274,trainPhase
12,2,A150,Alpha,Alpha,True,1672,3,12274,trainPhase
13,2,A250,Alpha,Alpha,True,1774,3,12274,trainPhase
14,2,B950,Beta,Beta,True,2478,3,12274,trainPhase
0,3,C1250,Gamma,Gamma,True,990,3,12274,trainPhase
1,3,A50,Alpha,Alpha,True,1014,3,12274,trainPhase
2,3,B850,Beta,Beta,True,853,3,12274,trainPhase
3,3,A250,Alpha,Alpha,True,1327,3,12274,trainPhase
4,3,C1350,Gamma,Gamma,True,1189,3,12274,trainPhase
5,3,A450,Alpha,Beta,False,1749,3,12274,trainPhase
6,3,B650,Beta,Beta,True,1122,3,12274,trainPhase
7,3,A150,Alpha,Alpha,True,740,3,12274,trainPhase
8,3,C1050,Gamma,Gamma,True,1457,3,12274,trainPhase
9,3,B550,Beta,Beta,True,769,3,12274,trainPhase
10,3,C1450,Gamma,Gamma,True,1630,3,12274,trainPhase
11,3,B950,Beta,Gamma,False,4418,3,12274,trainPhase
12,3,C1150,Gamma,Gamma,True,707,3,12274,trainPhase
13,3,B750,Beta,Beta,True,708,3,12274,trainPhase
14,3,A350,Alpha,Alpha,True,791,3,12274,trainPhase
0,4,A250,Alpha,Alpha,True,821,3,12274,trainPhase
1,4,C1350,Gamma,Gamma,True,1893,3,12274,trainPhase
2,4,A50,Alpha,Alpha,True,909,3,12274,trainPhase
3,4,A350,Alpha,Alpha,True,1517,3,12274,trainPhase
4,4,C1250,Gamma,Gamma,True,710,3,12274,trainPhase
5,4,C1450,Gamma,Gamma,True,818,3,12274,trainPhase
6,4,B850,Beta,Beta,True,1871,3,12274,trainPhase
7,4,B950,Beta,Beta,True,757,3,12274,trainPhase
8,4,B650,Beta,Beta,True,1054,3,12274,trainPhase
9,4,A150,Alpha,Alpha,True,797,3,12274,trainPhase
10,4,B750,Beta,Beta,True,1170,3,12274,trainPhase
11,4,A450,Alpha,Alpha,True,1005,3,12274,trainPhase
12,4,C1150,Gamma,Gamma,True,1336,3,12274,trainPhase
13,4,B550,Beta,Beta,True,2887,3,12274,trainPhase
14,4,C1050,Gamma,Gamma,True,1394,3,12274,trainPhase
0,0,C1350,Gamma,Alpha,False,5210,3,12277,trainPhase
1,0,A450,Alpha,Gamma,False,1912,3,12277,trainPhase
2,0,B550,Beta,Beta,True,1337,3,12277,trainPhase
3,0,A50,Alpha,Gamma,False,3679,3,12277,trainPhase
4,0,C1450,Gamma,Alpha,False,2736,3,12277,trainPhase
5,0,B750,Beta,Beta,True,5253,3,12277,trainPhase
6,0,A150,Alpha,Gamma,False,2336,3,12277,trainPhase
7,0,B650,Beta,Beta,True,1438,3,12277,trainPhase
8,0,A250,Alpha,Alpha,True,1565,3,12277,trainPhase
9,0,B950,Beta,Gamma,False,1697,3,12277,trainPhase
10,0,B850,Beta,Beta,True,925,3,12277,trainPhase
11,0,C1150,Gamma,Gamma,True,2071,3,12277,trainPhase
12,0,C1250,Gamma,Alpha,False,2741,3,12277,trainPhase
13,0,C1050,Gamma,Beta,False,1291,3,12277,trainPhase
14,0,A350,Alpha,Alpha,True,2411,3,12277,trainPhase
0,1,A250,Alpha,Alpha,True,997,3,12277,trainPhase
1,1,C1150,Gamma,Gamma,True,1656,3,12277,trainPhase
2,1,A150,Alpha,Alpha,True,1374,3,12277,trainPhase
3,1,B650,Beta,Beta,True,1233,3,12277,trainPhase
4,1,A450,Alpha,Beta,False,1222,3,12277,trainPhase
5,1,B750,Beta,Beta,True,2205,3,12277,trainPhase
6,1,B550,Beta,Alpha,False,1462,3,12277,trainPhase
7,1,C1450,Gamma,Gamma,True,1342,3,12277,trainPhase
8,1,A50,Alpha,Alpha,True,1371,3,12277,trainPhase
9,1,C1350,Gamma,Gamma,True,899,3,12277,trainPhase
10,1,C1050,Gamma,Gamma,True,842,3,12277,trainPhase
11,1,B850,Beta,Gamma,False,777,3,12277,trainPhase
12,1,C1250,Gamma,Gamma,True,980,3,12277,trainPhase
13,1,B950,Beta,Beta,True,693,3,12277,trainPhase
14,1,A350,Alpha,Alpha,True,1270,3,12277,trainPhase
0,2,A250,Alpha,Alpha,True,644,3,12277,trainPhase
1,2,A350,Alpha,Alpha,True,669,3,12277,trainPhase
2,2,B650,Beta,Beta,True,847,3,12277,trainPhase
3,2,B750,Beta,Beta,True,761,3,12277,trainPhase
4,2,C1150,Gamma,Gamma,True,605,3,12277,trainPhase
5,2,A150,Alpha,Alpha,True,1021,3,12277,trainPhase
6,2,C1050,Gamma,Gamma,True,1134,3,12277,trainPhase
7,2,C1250,Gamma,Gamma,True,774,3,12277,trainPhase
8,2,B850,Beta,Gamma,False,637,3,12277,trainPhase
9,2,C1350,Gamma,Gamma,True,969,3,12277,trainPhase
10,2,A50,Alpha,Alpha,True,959,3,12277,trainPhase
11,2,A450,Alpha,Beta,False,893,3,12277,trainPhase
12,2,B550,Beta,Beta,True,806,3,12277,trainPhase
13,2,B950,Beta,Gamma,False,1727,3,12277,trainPhase
14,2,C1450,Gamma,Gamma,True,638,3,12277,trainPhase
0,3,B550,Beta,Beta,True,1237,3,12277,trainPhase
1,3,A250,Alpha,Alpha,True,850,3,12277,trainPhase
2,3,C1450,Gamma,Gamma,True,668,3,12277,trainPhase
3,3,A50,Alpha,Alpha,True,823,3,12277,trainPhase
4,3,A450,Alpha,Beta,False,862,3,12277,trainPhase
5,3,C1250,Gamma,Gamma,True,653,3,12277,trainPhase
6,3,C1350,Gamma,Gamma,True,646,3,12277,trainPhase
7,3,B650,Beta,Gamma,False,662,3,12277,trainPhase
8,3,B850,Beta,Beta,True,741,3,12277,trainPhase
9,3,C1150,Gamma,Gamma,True,998,3,12277,trainPhase
10,3,B750,Beta,Beta,True,1198,3,12277,trainPhase
11,3,C1050,Gamma,Gamma,True,829,3,12277,trainPhase
12,3,A150,Alpha,Alpha,True,638,3,12277,trainPhase
13,3,A350,Alpha,Beta,False,941,3,12277,trainPhase
14,3,B950,Beta,Gamma,False,1418,3,12277,trainPhase
0,4,B750,Beta,Beta,True,908,3,12277,trainPhase
1,4,B950,Beta,Gamma,False,1437,3,12277,trainPhase
2,4,A50,Alpha,Alpha,True,1594,3,12277,trainPhase
3,4,A350,Alpha,Beta,False,2139,3,12277,trainPhase
4,4,C1350,Gamma,Gamma,True,774,3,12277,trainPhase
5,4,C1450,Gamma,Gamma,True,640,3,12277,trainPhase
6,4,A250,Alpha,Alpha,True,2882,3,12277,trainPhase
7,4,B550,Beta,Beta,True,1606,3,12277,trainPhase
8,4,A450,Alpha,Beta,False,565,3,12277,trainPhase
9,4,B650,Beta,Beta,True,856,3,12277,trainPhase
10,4,C1150,Gamma,Gamma,True,1064,3,12277,trainPhase
11,4,B850,Beta,Gamma,False,695,3,12277,trainPhase
12,4,C1050,Gamma,Gamma,True,751,3,12277,trainPhase
13,4,C1250,Gamma,Gamma,True,708,3,12277,trainPhase
14,4,A150,Alpha,Alpha,True,1334,3,12277,trainPhase
0,0,C1450,Gamma,Alpha,False,5006,3,12138,trainPhase
1,0,A150,Alpha,Gamma,False,4485,3,12138,trainPhase
2,0,B750,Beta,Gamma,False,2237,3,12138,trainPhase
3,0,C1350,Gamma,Gamma,True,3643,3,12138,trainPhase
4,0,B550,Beta,Beta,True,2502,3,12138,trainPhase
5,0,C1250,Gamma,Gamma,True,2167,3,12138,trainPhase
6,0,B650,Beta,Beta,True,854,3,12138,trainPhase
7,0,A50,Alpha,Alpha,True,1283,3,12138,trainPhase
8,0,B950,Beta,Beta,True,3297,3,12138,trainPhase
9,0,C1050,Gamma,Beta,False,3247,3,12138,trainPhase
10,0,A350,Alpha,Beta,False,926,3,12138,trainPhase
11,0,A450,Alpha,Alpha,True,2630,3,12138,trainPhase
12,0,C1150,Gamma,Gamma,True,2063,3,12138,trainPhase
13,0,A250,Alpha,Alpha,True,1287,3,12138,trainPhase
14,0,B850,Beta,Beta,True,917,3,12138,trainPhase
0,1,B750,Beta,Beta,True,937,3,12138,trainPhase
1,1,B950,Beta,Gamma,False,3998,3,12138,trainPhase
2,1,C1350,Gamma,Gamma,True,1147,3,12138,trainPhase
3,1,B550,Beta,Alpha,False,1879,3,12138,trainPhase
4,1,C1150,Gamma,Gamma,True,2509,3,12138,trainPhase
5,1,B850,Beta,Beta,True,1204,3,12138,trainPhase
6,1,A150,Alpha,Alpha,True,1343,3,12138,trainPhase
7,1,A350,Alpha,Alpha,True,1334,3,12138,trainPhase
8,1,C1250,Gamma,Gamma,True,760,3,12138,trainPhase
9,1,A50,Alpha,Alpha,True,978,3,12138,trainPhase
10,1,A250,Alpha,Alpha,True,1433,3,12138,trainPhase
11,1,C1050,Gamma,Gamma,True,2504,3,12138,trainPhase
12,1,C1450,Gamma,Gamma,True,790,3,12138,trainPhase
13,1,B650,Beta,Beta,True,1687,3,12138,trainPhase
14,1,A450,Alpha,Beta,False,2677,3,12138,trainPhase
0,2,C1050,Gamma,Beta,False,4924,3,12138,trainPhase
1,2,B550,Beta,Beta,True,1398,3,12138,trainPhase
2,2,A150,Alpha,Alpha,True,1023,3,12138,trainPhase
3,2,C1150,Gamma,Gamma,True,1263,3,12138,trainPhase
4,2,A250,Alpha,Alpha,True,1147,3,12138,trainPhase
5,2,B950,Beta,Beta,True,1118,3,12138,trainPhase
6,2,C1350,Gamma,Gamma,True,860,3,12138,trainPhase
7,2,C1250,Gamma,Gamma,True,778,3,12138,trainPhase
8,2,B850,Beta,Beta,True,1084,3,12138,trainPhase
9,2,A50,Alpha,Alpha,True,1272,3,12138,trainPhase
10,2,A350,Alpha,Alpha,True,1233,3,12138,trainPhase
11,2,B650,Beta,Beta,True,861,3,12138,trainPhase
12,2,C1450,Gamma,Gamma,True,1104,3,12138,trainPhase
13,2,A450,Alpha,Beta,False,1925,3,12138,trainPhase
14,2,B750,Beta,Beta,True,786,3,12138,trainPhase
0,3,C1450,Gamma,Gamma,True,1481,3,12138,trainPhase
1,3,A250,Alpha,Alpha,True,1439,3,12138,trainPhase
2,3,A450,Alpha,Alpha,True,1359,3,12138,trainPhase
3,3,A350,Alpha,Alpha,True,1221,3,12138,trainPhase
4,3,B550,Beta,Beta,True,1800,3,12138,trainPhase
5,3,B650,Beta,Beta,True,903,3,12138,trainPhase
6,3,C1050,Gamma,Gamma,True,1003,3,12138,trainPhase
7,3,A150,Alpha,Alpha,True,1002,3,12138,trainPhase
8,3,C1350,Gamma,Gamma,True,1690,3,12138,trainPhase
9,3,C1150,Gamma,Gamma,True,1725,3,12138,trainPhase
10,3,B950,Beta,Gamma,False,4029,3,12138,trainPhase
11,3,B850,Beta,Beta,True,717,3,12138,trainPhase
12,3,B750,Beta,Beta,True,1621,3,12138,trainPhase
13,3,A50,Alpha,Alpha,True,1061,3,12138,trainPhase
14,3,C1250,Gamma,Gamma,True,2500,3,12138,trainPhase
0,4,B950,Beta,Gamma,False,2933,3,12138,trainPhase
1,4,A450,Alpha,Alpha,True,1334,3,12138,trainPhase
2,4,C1250,Gamma,Gamma,True,1241,3,12138,trainPhase
3,4,C1450,Gamma,Gamma,True,837,3,12138,trainPhase
4,4,B550,Beta,Beta,True,1178,3,12138,trainPhase
5,4,B750,Beta,Beta,True,858,3,12138,trainPhase
6,4,B850,Beta,Beta,True,1043,3,12138,trainPhase
7,4,B650,Beta,Beta,True,992,3,12138,trainPhase
8,4,A150,Alpha,Alpha,True,842,3,12138,trainPhase
9,4,C1150,Gamma,Gamma,True,1830,3,12138,trainPhase
10,4,A50,Alpha,Alpha,True,975,3,12138,trainPhase
11,4,A350,Alpha,Alpha,True,1295,3,12138,trainPhase
12,4,C1050,Gamma,Gamma,True,2119,3,12138,trainPhase
13,4,A250,Alpha,Alpha,True,1123,3,12138,trainPhase
14,4,C1350,Gamma,Gamma,True,974,3,12138,trainPhase
0,0,B750,Beta,Alpha,False,3330,3,12280,trainPhase
1,0,C1050,Gamma,Beta,False,2196,3,12280,trainPhase
2,0,A350,Alpha,Alpha,True,7271,3,12280,trainPhase
3,0,B850,Beta,Gamma,False,3468,3,12280,trainPhase
4,0,C1450,Gamma,Gamma,True,2054,3,12280,trainPhase
5,0,B650,Beta,Beta,True,1525,3,12280,trainPhase
6,0,A150,Alpha,Alpha,True,2197,3,12280,trainPhase
7,0,B550,Beta,Beta,True,1077,3,12280,trainPhase
8,0,A250,Alpha,Alpha,True,2021,3,12280,trainPhase
9,0,C1250,Gamma,Gamma,True,948,3,12280,trainPhase
10,0,A50,Alpha,Alpha,True,1045,3,12280,trainPhase
11,0,C1350,Gamma,Gamma,True,1236,3,12280,trainPhase
12,0,B950,Beta,Gamma,False,2476,3,12280,trainPhase
13,0,C1150,Gamma,Gamma,True,1398,3,12280,trainPhase
14,0,A450,Alpha,Alpha,True,1668,3,12280,trainPhase
0,1,B650,Beta,Beta,True,1364,3,12280,trainPhase
1,1,A450,Alpha,Beta,False,5509,3,12280,trainPhase
2,1,C1150,Gamma,Gamma,True,2101,3,12280,trainPhase
3,1,A350,Alpha,Alpha,True,1141,3,12280,trainPhase
4,1,A150,Alpha,Alpha,True,917,3,12280,trainPhase
5,1,C1050,Gamma,Gamma,True,1261,3,12280,trainPhase
6,1,C1250,Gamma,Gamma,True,981,3,12280,trainPhase
7,1,A50,Alpha,Alpha,True,1219,3,12280,trainPhase
8,1,C1350,Gamma,Gamma,True,1038,3,12280,trainPhase
9,1,B550,Beta,Beta,True,2229,3,12280,trainPhase
10,1,A250,Alpha,Alpha,True,973,3,12280,trainPhase
11,1,B850,Beta,Gamma,False,1458,3,12280,trainPhase
12,1,B950,Beta,Gamma,False,1837,3,12280,trainPhase
13,1,B750,Beta,Beta,True,2494,3,12280,trainPhase
14,1,C1450,Gamma,Gamma,True,926,3,12280,trainPhase
0,2,C1350,Gamma,Gamma,True,831,3,12280,trainPhase
1,2,A50,Alpha,Alpha,True,910,3,12280,trainPhase
2,2,C1250,Gamma,Gamma,True,2867,3,12280,trainPhase
3,2,B750,Beta,Beta,True,972,3,12280,trainPhase
4,2,C1150,Gamma,Gamma,True,1017,3,12280,trainPhase
5,2,B650,Beta,Beta,True,932,3,12280,trainPhase
6,2,C1450,Gamma,Gamma,True,1277,3,12280,trainPhase
7,2,C1050,Gamma,Gamma,True,1339,3,12280,trainPhase
8,2,A150,Alpha,Alpha,True,933,3,12280,trainPhase
9,2,B950,Beta,Gamma,False,4805,3,12280,trainPhase
10,2,A250,Alpha,Alpha,True,902,3,12280,trainPhase
11,2,A450,Alpha,Beta,False,1813,3,12280,trainPhase
12,2,B550,Beta,Beta,True,860,3,12280,trainPhase
13,2,B850,Beta,Gamma,False,3246,3,12280,trainPhase
14,2,A350,Alpha,Alpha,True,1526,3,12280,trainPhase
0,3,B650,Beta,Beta,True,862,3,12280,trainPhase
1,3,C1050,Gamma,Gamma,True,852,3,12280,trainPhase
2,3,A250,Alpha,Alpha,True,1973,3,12280,trainPhase
3,3,B950,Beta,Gamma,False,1143,3,12280,trainPhase
4,3,C1150,Gamma,Gamma,True,1005,3,12280,trainPhase
5,3,A450,Alpha,Beta,False,1021,3,12280,trainPhase
6,3,A150,Alpha,Alpha,True,901,3,12280,trainPhase
7,3,C1350,Gamma,Gamma,True,1325,3,12280,trainPhase
8,3,A350,Alpha,Alpha,True,1303,3,12280,trainPhase
9,3,B550,Beta,Beta,True,1893,3,12280,trainPhase
10,3,C1250,Gamma,Gamma,True,1558,3,12280,trainPhase
11,3,C1450,Gamma,Gamma,True,959,3,12280,trainPhase
12,3,A50,Alpha,Alpha,True,838,3,12280,trainPhase
13,3,B850,Beta,Gamma,False,1445,3,12280,trainPhase
14,3,B750,Beta,Beta,True,2574,3,12280,trainPhase
0,4,A50,Alpha,Alpha,True,957,3,12280,trainPhase
1,4,B550,Beta,Beta,True,1037,3,12280,trainPhase
2,4,A450,Alpha,Alpha,True,1597,3,12280,trainPhase
3,4,B850,Beta,Gamma,False,1718,3,12280,trainPhase
4,4,C1450,Gamma,Gamma,True,829,3,12280,trainPhase
5,4,B750,Beta,Beta,True,2318,3,12280,trainPhase
6,4,C1150,Gamma,Gamma,True,1046,3,12280,trainPhase
7,4,C1350,Gamma,Gamma,True,909,3,12280,trainPhase
8,4,A350,Alpha,Alpha,True,1902,3,12280,trainPhase
9,4,B950,Beta,Gamma,False,1389,3,12280,trainPhase
10,4,A250,Alpha,Alpha,True,1133,3,12280,trainPhase
11,4,B650,Beta,Beta,True,878,3,12280,trainPhase
12,4,C1250,Gamma,Gamma,True,965,3,12280,trainPhase
13,4,C1050,Gamma,Gamma,True,2876,3,12280,trainPhase
14,4,A150,Alpha,Alpha,True,1333,3,12280,trainPhase
0,0,C1350,Gamma,Alpha,False,12209,3,12282,trainPhase
1,0,A150,Alpha,Beta,False,2994,3,12282,trainPhase
2,0,B550,Beta,Beta,True,751,3,12282,trainPhase
3,0,A350,Alpha,Beta,False,2390,3,12282,trainPhase
4,0,A50,Alpha,Beta,False,3009,3,12282,trainPhase
5,0,B850,Beta,Gamma,False,1161,3,12282,trainPhase
6,0,C1150,Gamma,Beta,False,3929,3,12282,trainPhase
7,0,B650,Beta,Beta,True,2812,3,12282,trainPhase
8,0,A450,Alpha,Beta,False,1210,3,12282,trainPhase
9,0,C1250,Gamma,Alpha,False,1761,3,12282,trainPhase
10,0,A250,Alpha,Alpha,True,3405,3,12282,trainPhase
11,0,B750,Beta,Beta,True,1240,3,12282,trainPhase
12,0,B950,Beta,Gamma,False,1195,3,12282,trainPhase
13,0,C1450,Gamma,Gamma,True,3126,3,12282,trainPhase
14,0,C1050,Gamma,Gamma,True,1167,3,12282,trainPhase
0,1,B550,Beta,Alpha,False,1487,3,12282,trainPhase
1,1,B750,Beta,Alpha,False,933,3,12282,trainPhase
2,1,B950,Beta,Alpha,False,804,3,12282,trainPhase
3,1,A350,Alpha,Beta,False,901,3,12282,trainPhase
4,1,C1350,Gamma,Gamma,True,869,3,12282,trainPhase
5,1,C1450,Gamma,Gamma,True,798,3,12282,trainPhase
6,1,C1050,Gamma,Gamma,True,1030,3,12282,trainPhase
7,1,A250,Alpha,Beta,False,1245,3,12282,trainPhase
8,1,B650,Beta,Beta,True,1038,3,12282,trainPhase
9,1,C1150,Gamma,Gamma,True,933,3,12282,trainPhase
10,1,A50,Alpha,Alpha,True,1273,3,12282,trainPhase
11,1,C1250,Gamma,Gamma,True,868,3,12282,trainPhase
12,1,A150,Alpha,Alpha,True,1168,3,12282,trainPhase
13,1,B850,Beta,Beta,True,799,3,12282,trainPhase
14,1,A450,Alpha,Beta,False,1205,3,12282,trainPhase
0,2,A250,Alpha,Alpha,True,1828,3,12282,trainPhase
1,2,A150,Alpha,Alpha,True,823,3,12282,trainPhase
2,2,A350,Alpha,Alpha,True,994,3,12282,trainPhase
3,2,B950,Beta,Beta,True,1135,3,12282,trainPhase
4,2,C1450,Gamma,Gamma,True,743,3,12282,trainPhase
5,2,A50,Alpha,Alpha,True,1037,3,12282,trainPhase
6,2,C1150,Gamma,Beta,False,1190,3,12282,trainPhase
7,2,B850,Beta,Beta,True,989,3,12282,trainPhase
8,2,B750,Beta,Beta,True,1245,3,12282,trainPhase
9,2,C1350,Gamma,Gamma,True,953,3,12282,trainPhase
10,2,B550,Beta,Beta,True,805,3,12282,trainPhase
11,2,C1050,Gamma,Gamma,True,918,3,12282,trainPhase
12,2,A450,Alpha,Beta,False,634,3,12282,trainPhase
13,2,B650,Beta,Beta,True,755,3,12282,trainPhase
14,2,C1250,Gamma,Gamma,True,688,3,12282,trainPhase
0,3,C1450,Gamma,Gamma,True,793,3,12282,trainPhase
1,3,C1350,Gamma,Gamma,True,741,3,12282,trainPhase
2,3,C1250,Gamma,Gamma,True,805,3,12282,trainPhase
3,3,B650,Beta,Beta,True,1461,3,12282,trainPhase
4,3,B750,Beta,Beta,True,1246,3,12282,trainPhase
5,3,A50,Alpha,Alpha,True,1029,3,12282,trainPhase
6,3,A350,Alpha,Beta,False,5428,3,12282,trainPhase
7,3,B950,Beta,Beta,True,782,3,12282,trainPhase
8,3,A250,Alpha,Alpha,True,891,3,12282,trainPhase
9,3,A450,Alpha,Alpha,True,893,3,12282,trainPhase
10,3,C1150,Gamma,Beta,False,1054,3,12282,trainPhase
11,3,B550,Beta,Beta,True,693,3,12282,trainPhase
12,3,B850,Beta,Gamma,False,1530,3,12282,trainPhase
13,3,C1050,Gamma,Gamma,True,894,3,12282,trainPhase
14,3,A150,Alpha,Alpha,True,1271,3,12282,trainPhase
0,4,A50,Alpha,Alpha,True,573,3,12282,trainPhase
1,4,B850,Beta,Beta,True,1076,3,12282,trainPhase
2,4,C1250,Gamma,Gamma,True,669,3,12282,trainPhase
3,4,C1450,Gamma,Gamma,True,805,3,12282,trainPhase
4,4,A350,Alpha,Beta,False,1773,3,12282,trainPhase
5,4,B550,Beta,Beta,True,1165,3,12282,trainPhase
6,4,C1050,Gamma,Gamma,True,853,3,12282,trainPhase
7,4,B750,Beta,Gamma,False,1111,3,12282,trainPhase
8,4,A450,Alpha,Beta,False,1309,3,12282,trainPhase
9,4,A250,Alpha,Alpha,True,742,3,12282,trainPhase
10,4,B950,Beta,Beta,True,901,3,12282,trainPhase
11,4,A150,Alpha,Alpha,True,762,3,12282,trainPhase
12,4,C1150,Gamma,Beta,False,878,3,12282,trainPhase
13,4,C1350,Gamma,Gamma,True,621,3,12282,trainPhase
14,4,B650,Beta,Gamma,False,2024,3,12282,trainPhase
0,0,B850,Beta,Alpha,False,3378,3,12285,trainPhase
1,0,B950,Beta,Beta,True,1902,3,12285,trainPhase
2,0,A250,Alpha,Alpha,True,4281,3,12285,trainPhase
3,0,C1450,Gamma,Gamma,True,1136,3,12285,trainPhase
4,0,A450,Alpha,Beta,False,2133,3,12285,trainPhase
5,0,C1350,Gamma,Gamma,True,6564,3,12285,trainPhase
6,0,C1150,Gamma,Gamma,True,8997,3,12285,trainPhase
7,0,C1050,Gamma,Gamma,True,3036,3,12285,trainPhase
8,0,A50,Alpha,Alpha,True,1131,3,12285,trainPhase
9,0,A350,Alpha,Beta,False,3502,3,12285,trainPhase
10,0,A150,Alpha,Alpha,True,1493,3,12285,trainPhase
11,0,B750,Beta,Gamma,False,3695,3,12285,trainPhase
12,0,B650,Beta,Beta,True,1693,3,12285,trainPhase
13,0,B550,Beta,Alpha,False,4378,3,12285,trainPhase
14,0,C1250,Gamma,Gamma,True,1152,3,12285,trainPhase
0,1,B950,Beta,Gamma,False,2324,3,12285,trainPhase
1,1,A350,Alpha,Alpha,True,4305,3,12285,trainPhase
2,1,C1350,Gamma,Gamma,True,918,3,12285,trainPhase
3,1,A150,Alpha,Alpha,True,1482,3,12285,trainPhase
4,1,A250,Alpha,Alpha,True,6940,3,12285,trainPhase
5,1,B750,Beta,Beta,True,3555,3,12285,trainPhase
6,1,B550,Beta,Beta,True,2420,3,12285,trainPhase
7,1,C1050,Gamma,Gamma,True,951,3,12285,trainPhase
8,1,C1150,Gamma,Gamma,True,4342,3,12285,trainPhase
9,1,A50,Alpha,Alpha,True,980,3,12285,trainPhase
10,1,C1250,Gamma,Gamma,True,1468,3,12285,trainPhase
11,1,A450,Alpha,Alpha,True,3102,3,12285,trainPhase
12,1,C1450,Gamma,Gamma,True,951,3,12285,trainPhase
13,1,B850,Beta,Gamma,False,1433,3,12285,trainPhase
14,1,B650,Beta,Beta,True,4418,3,12285,trainPhase
0,2,B950,Beta,Gamma,False,1174,3,12285,trainPhase
1,2,C1250,Gamma,Gamma,True,874,3,12285,trainPhase
2,2,B550,Beta,Beta,True,7093,3,12285,trainPhase
3,2,C1450,Gamma,Gamma,True,777,3,12285,trainPhase
4,2,C1150,Gamma,Gamma,True,1201,3,12285,trainPhase
5,2,C1350,Gamma,Gamma,True,1083,3,12285,trainPhase
6,2,A350,Alpha,Alpha,True,2357,3,12285,trainPhase
7,2,A50,Alpha,Alpha,True,896,3,12285,trainPhase
8,2,A150,Alpha,Alpha,True,795,3,12285,trainPhase
9,2,A250,Alpha,Alpha,True,1400,3,12285,trainPhase
10,2,B750,Beta,Beta,True,2127,3,12285,trainPhase
11,2,B650,Beta,Beta,True,2680,3,12285,trainPhase
12,2,C1050,Gamma,Gamma,True,1813,3,12285,trainPhase
13,2,A450,Alpha,Alpha,True,1537,3,12285,trainPhase
14,2,B850,Beta,Gamma,False,1893,3,12285,trainPhase
0,3,C1150,Gamma,Gamma,True,2028,3,12285,trainPhase
1,3,B950,Beta,Gamma,False,2964,3,12285,trainPhase
2,3,B650,Beta,Beta,True,5829,3,12285,trainPhase
3,3,B750,Beta,Beta,True,2715,3,12285,trainPhase
4,3,A50,Alpha,Alpha,True,1038,3,12285,trainPhase
5,3,A350,Alpha,Alpha,True,4286,3,12285,trainPhase
6,3,A450,Alpha,Alpha,True,1382,3,12285,trainPhase
7,3,B550,Beta,Beta,True,1741,3,12285,trainPhase
8,3,C1350,Gamma,Gamma,True,868,3,12285,trainPhase
9,3,A150,Alpha,Alpha,True,1317,3,12285,trainPhase
10,3,C1450,Gamma,Gamma,True,2355,3,12285,trainPhase
11,3,C1250,Gamma,Gamma,True,5005,3,12285,trainPhase
12,3,A250,Alpha,Alpha,True,2278,3,12285,trainPhase
13,3,C1050,Gamma,Gamma,True,7101,3,12285,trainPhase
14,3,B850,Beta,Beta,True,1352,3,12285,trainPhase
0,4,C1450,Gamma,Gamma,True,1326,3,12285,trainPhase
1,4,B850,Beta,Beta,True,1873,3,12285,trainPhase
2,4,B750,Beta,Beta,True,1573,3,12285,trainPhase
3,4,B950,Beta,Gamma,False,2414,3,12285,trainPhase
4,4,C1250,Gamma,Gamma,True,1164,3,12285,trainPhase
5,4,A450,Alpha,Alpha,True,1414,3,12285,trainPhase
6,4,A50,Alpha,Alpha,True,914,3,12285,trainPhase
7,4,C1150,Gamma,Gamma,True,1103,3,12285,trainPhase
8,4,B550,Beta,Beta,True,1709,3,12285,trainPhase
9,4,A150,Alpha,Alpha,True,1021,3,12285,trainPhase
10,4,C1350,Gamma,Gamma,True,893,3,12285,trainPhase
11,4,B650,Beta,Beta,True,1259,3,12285,trainPhase
12,4,A250,Alpha,Alpha,True,4047,3,12285,trainPhase
13,4,A350,Alpha,Alpha,True,1109,3,12285,trainPhase
14,4,C1050,Gamma,Gamma,True,1360,3,12285,trainPhase
0,0,A350,Alpha,Gamma,False,5690,3,12288,trainPhase
1,0,C1350,Gamma,Gamma,True,2495,3,12288,trainPhase
2,0,C1050,Gamma,Gamma,True,1732,3,12288,trainPhase
3,0,B850,Beta,Beta,True,1070,3,12288,trainPhase
4,0,A150,Alpha,Alpha,True,1231,3,12288,trainPhase
5,0,A250,Alpha,Beta,False,1005,3,12288,trainPhase
6,0,C1250,Gamma,Gamma,True,1351,3,12288,trainPhase
7,0,C1450,Gamma,Gamma,True,1443,3,12288,trainPhase
8,0,B750,Beta,Beta,True,919,3,12288,trainPhase
9,0,B650,Beta,Beta,True,836,3,12288,trainPhase
10,0,A450,Alpha,Beta,False,2174,3,12288,trainPhase
11,0,B950,Beta,Beta,True,3478,3,12288,trainPhase
12,0,B550,Beta,Alpha,False,1195,3,12288,trainPhase
13,0,A50,Alpha,Alpha,True,895,3,12288,trainPhase
14,0,C1150,Gamma,Gamma,True,1813,3,12288,trainPhase
0,1,B650,Beta,Beta,True,888,3,12288,trainPhase
1,1,C1250,Gamma,Gamma,True,2210,3,12288,trainPhase
2,1,B850,Beta,Beta,True,2974,3,12288,trainPhase
3,1,A150,Alpha,Alpha,True,1258,3,12288,trainPhase
4,1,B950,Beta,Beta,True,1996,3,12288,trainPhase
5,1,C1350,Gamma,Gamma,True,1120,3,12288,trainPhase
6,1,A450,Alpha,Beta,False,1975,3,12288,trainPhase
7,1,A350,Alpha,Alpha,True,1206,3,12288,trainPhase
8,1,B750,Beta,Beta,True,784,3,12288,trainPhase
9,1,A250,Alpha,Alpha,True,901,3,12288,trainPhase
10,1,A50,Alpha,Alpha,True,995,3,12288,trainPhase
11,1,B550,Beta,Beta,True,2252,3,12288,trainPhase
12,1,C1050,Gamma,Beta,False,1598,3,12288,trainPhase
13,1,C1450,Gamma,Gamma,True,782,3,12288,trainPhase
14,1,C1150,Gamma,Gamma,True,915,3,12288,trainPhase
0,2,B950,Beta,Beta,True,613,3,12288,trainPhase
1,2,B550,Beta,Beta,True,1771,3,12288,trainPhase
2,2,A150,Alpha,Alpha,True,822,3,12288,trainPhase
3,2,A250,Alpha,Alpha,True,726,3,12288,trainPhase
4,2,C1450,Gamma,Gamma,True,1101,3,12288,trainPhase
5,2,A50,Alpha,Alpha,True,1048,3,12288,trainPhase
6,2,C1350,Gamma,Gamma,True,4361,3,12288,trainPhase
7,2,A350,Alpha,Alpha,True,2444,3,12288,trainPhase
8,2,B750,Beta,Beta,True,670,3,12288,trainPhase
9,2,C1250,Gamma,Gamma,True,2248,3,12288,trainPhase
10,2,B650,Beta,Beta,True,1173,3,12288,trainPhase
11,2,C1050,Gamma,Gamma,True,773,3,12288,trainPhase
12,2,C1150,Gamma,Gamma,True,1587,3,12288,trainPhase
13,2,B850,Beta,Beta,True,1161,3,12288,trainPhase
14,2,A450,Alpha,Alpha,True,2523,3,12288,trainPhase
0,3,B550,Beta,Beta,True,909,3,12288,trainPhase
1,3,A350,Alpha,Alpha,True,957,3,12288,trainPhase
2,3,A450,Alpha,Beta,False,816,3,12288,trainPhase
3,3,C1150,Gamma,Beta,False,4660,3,12288,trainPhase
4,3,A50,Alpha,Alpha,True,950,3,12288,trainPhase
5,3,B850,Beta,Beta,True,1929,3,12288,trainPhase
6,3,C1450,Gamma,Gamma,True,864,3,12288,trainPhase
7,3,C1250,Gamma,Gamma,True,1409,3,12288,trainPhase
8,3,B950,Beta,Beta,True,783,3,12288,trainPhase
9,3,B750,Beta,Beta,True,1818,3,12288,trainPhase
10,3,A250,Alpha,Alpha,True,1888,3,12288,trainPhase
11,3,C1350,Gamma,Gamma,True,1649,3,12288,trainPhase
12,3,B650,Beta,Beta,True,5641,3,12288,trainPhase
13,3,A150,Alpha,Alpha,True,706,3,12288,trainPhase
14,3,C1050,Gamma,Gamma,True,2637,3,12288,trainPhase
0,4,C1350,Gamma,Gamma,True,992,3,12288,trainPhase
1,4,B750,Beta,Beta,True,1337,3,12288,trainPhase
2,4,A250,Alpha,Alpha,True,1331,3,12288,trainPhase
3,4,A50,Alpha,Alpha,True,818,3,12288,trainPhase
4,4,A450,Alpha,Beta,False,1958,3,12288,trainPhase
5,4,C1450,Gamma,Gamma,True,934,3,12288,trainPhase
6,4,C1150,Gamma,Gamma,True,1065,3,12288,trainPhase
7,4,B650,Beta,Beta,True,1407,3,12288,trainPhase
8,4,A150,Alpha,Alpha,True,1131,3,12288,trainPhase
9,4,B550,Beta,Beta,True,1668,3,12288,trainPhase
10,4,B950,Beta,Beta,True,2792,3,12288,trainPhase
11,4,C1050,Gamma,Gamma,True,879,3,12288,trainPhase
12,4,A350,Alpha,Alpha,True,1990,3,12288,trainPhase
13,4,B850,Beta,Beta,True,4574,3,12288,trainPhase
14,4,C1250,Gamma,Gamma,True,1227,3,12288,trainPhase
0,0,B850,Beta,Gamma,False,4869,3,12291,trainPhase
1,0,B650,Beta,Beta,True,1596,3,12291,trainPhase
2,0,A350,Alpha,Alpha,True,1967,3,12291,trainPhase
3,0,A250,Alpha,Alpha,True,2436,3,12291,trainPhase
4,0,A450,Alpha,Beta,False,1476,3,12291,trainPhase
5,0,C1050,Gamma,Gamma,True,1054,3,12291,trainPhase
6,0,B950,Beta,Gamma,False,1748,3,12291,trainPhase
7,0,A50,Alpha,Alpha,True,1823,3,12291,trainPhase
8,0,B550,Beta,Beta,True,1049,3,12291,trainPhase
9,0,C1250,Gamma,Gamma,True,1777,3,12291,trainPhase
10,0,C1350,Gamma,Gamma,True,1503,3,12291,trainPhase
11,0,C1450,Gamma,Gamma,True,1542,3,12291,trainPhase
12,0,A150,Alpha,Alpha,True,1294,3,12291,trainPhase
13,0,B750,Beta,Beta,True,1003,3,12291,trainPhase
14,0,C1150,Gamma,Gamma,True,2413,3,12291,trainPhase
0,1,C1350,Gamma,Gamma,True,1999,3,12291,trainPhase
1,1,C1050,Gamma,Beta,False,1677,3,12291,trainPhase
2,1,B550,Beta,Beta,True,1077,3,12291,trainPhase
3,1,A250,Alpha,Alpha,True,1016,3,12291,trainPhase
4,1,B650,Beta,Beta,True,1614,3,12291,trainPhase
5,1,C1150,Gamma,Gamma,True,1440,3,12291,trainPhase
6,1,A50,Alpha,Alpha,True,1100,3,12291,trainPhase
7,1,A350,Alpha,Beta,False,887,3,12291,trainPhase
8,1,B950,Beta,Gamma,False,2538,3,12291,trainPhase
9,1,B750,Beta,Beta,True,3374,3,12291,trainPhase
10,1,C1250,Gamma,Gamma,True,1102,3,12291,trainPhase
11,1,A450,Alpha,Beta,False,2146,3,12291,trainPhase
12,1,A150,Alpha,Alpha,True,1807,3,12291,trainPhase
13,1,B850,Beta,Beta,True,1013,3,12291,trainPhase
14,1,C1450,Gamma,Gamma,True,1207,3,12291,trainPhase
0,2,A150,Alpha,Alpha,True,1398,3,12291,trainPhase
1,2,A250,Alpha,Alpha,True,1247,3,12291,trainPhase
2,2,A450,Alpha,Beta,False,953,3,12291,trainPhase
3,2,C1150,Gamma,Gamma,True,2494,3,12291,trainPhase
4,2,B550,Beta,Beta,True,1487,3,12291,trainPhase
5,2,C1250,Gamma,Gamma,True,1023,3,12291,trainPhase
6,2,B950,Beta,Gamma,False,1557,3,12291,trainPhase
7,2,C1450,Gamma,Gamma,True,1478,3,12291,trainPhase
8,2,B650,Beta,Beta,True,901,3,12291,trainPhase
9,2,B750,Beta,Beta,True,1266,3,12291,trainPhase
10,2,C1050,Gamma,Beta,False,2354,3,12291,trainPhase
11,2,A350,Alpha,Alpha,True,5221,3,12291,trainPhase
12,2,A50,Alpha,Alpha,True,1037,3,12291,trainPhase
13,2,C1350,Gamma,Gamma,True,1280,3,12291,trainPhase
14,2,B850,Beta,Beta,True,2210,3,12291,trainPhase
0,3,C1150,Gamma,Gamma,True,1317,3,12291,trainPhase
1,3,A250,Alpha,Alpha,True,1190,3,12291,trainPhase
2,3,A50,Alpha,Alpha,True,1270,3,12291,trainPhase
3,3,B750,Beta,Beta,True,928,3,12291,trainPhase
4,3,C1250,Gamma,Gamma,True,973,3,12291,trainPhase
5,3,B650,Beta,Beta,True,1893,3,12291,trainPhase
6,3,C1350,Gamma,Gamma,True,954,3,12291,trainPhase
7,3,C1450,Gamma,Gamma,True,1492,3,12291,trainPhase
8,3,A350,Alpha,Alpha,True,1585,3,12291,trainPhase
9,3,B550,Beta,Beta,True,861,3,12291,trainPhase
10,3,B850,Beta,Gamma,False,828,3,12291,trainPhase
11,3,C1050,Gamma,Gamma,True,2369,3,12291,trainPhase
12,3,B950,Beta,Gamma,False,1848,3,12291,trainPhase
13,3,A450,Alpha,Beta,False,1110,3,12291,trainPhase
14,3,A150,Alpha,Alpha,True,853,3,12291,trainPhase
0,4,B950,Beta,Beta,True,1081,3,12291,trainPhase
1,4,C1250,Gamma,Gamma,True,1004,3,12291,trainPhase
2,4,A50,Alpha,Alpha,True,1185,3,12291,trainPhase
3,4,C1050,Gamma,Beta,False,2890,3,12291,trainPhase
4,4,A450,Alpha,Beta,False,998,3,12291,trainPhase
5,4,A350,Alpha,Alpha,True,1638,3,12291,trainPhase
6,4,B750,Beta,Beta,True,1127,3,12291,trainPhase
7,4,C1350,Gamma,Gamma,True,877,3,12291,trainPhase
8,4,A250,Alpha,Alpha,True,1338,3,12291,trainPhase
9,4,C1450,Gamma,Gamma,True,1226,3,12291,trainPhase
10,4,C1150,Gamma,Gamma,True,2263,3,12291,trainPhase
11,4,A150,Alpha,Alpha,True,1574,3,12291,trainPhase
12,4,B550,Beta,Beta,True,781,3,12291,trainPhase
13,4,B650,Beta,Beta,True,1614,3,12291,trainPhase
14,4,B850,Beta,Beta,True,1534,3,12291,trainPhase
0,0,A350,Alpha,Gamma,False,6562,3,12312,trainPhase
1,0,A150,Alpha,Beta,False,2300,3,12312,trainPhase
2,0,C1150,Gamma,Alpha,False,1136,3,12312,trainPhase
3,0,C1050,Gamma,Gamma,True,3721,3,12312,trainPhase
4,0,B550,Beta,Alpha,False,1085,3,12312,trainPhase
5,0,B950,Beta,Gamma,False,1929,3,12312,trainPhase
6,0,C1450,Gamma,Gamma,True,3942,3,12312,trainPhase
7,0,B850,Beta,Beta,True,2309,3,12312,trainPhase
8,0,A450,Alpha,Alpha,True,1045,3,12312,trainPhase
9,0,A50,Alpha,Alpha,True,1044,3,12312,trainPhase
10,0,B650,Beta,Beta,True,877,3,12312,trainPhase
11,0,B750,Beta,Gamma,False,901,3,12312,trainPhase
12,0,A250,Alpha,Alpha,True,1789,3,12312,trainPhase
13,0,C1250,Gamma,Gamma,True,1237,3,12312,trainPhase
14,0,C1350,Gamma,Gamma,True,1253,3,12312,trainPhase
0,1,C1150,Gamma,Gamma,True,796,3,12312,trainPhase
1,1,A150,Alpha,Alpha,True,1286,3,12312,trainPhase
2,1,B550,Beta,Beta,True,709,3,12312,trainPhase
3,1,A250,Alpha,Alpha,True,1341,3,12312,trainPhase
4,1,B750,Beta,Beta,True,2341,3,12312,trainPhase
5,1,B850,Beta,Beta,True,957,3,12312,trainPhase
6,1,A450,Alpha,Alpha,True,917,3,12312,trainPhase
7,1,A350,Alpha,Alpha,True,909,3,12312,trainPhase
8,1,C1250,Gamma,Gamma,True,1030,3,12312,trainPhase
9,1,C1350,Gamma,Gamma,True,838,3,12312,trainPhase
10,1,B950,Beta,Gamma,False,1446,3,12312,trainPhase
11,1,C1450,Gamma,Gamma,True,763,3,12312,trainPhase
12,1,A50,Alpha,Alpha,True,854,3,12312,trainPhase
13,1,C1050,Gamma,Gamma,True,3119,3,12312,trainPhase
14,1,B650,Beta,Beta,True,2139,3,12312,trainPhase
0,2,B650,Beta,Beta,True,941,3,12312,trainPhase
1,2,C1350,Gamma,Gamma,True,911,3,12312,trainPhase
2,2,B850,Beta,Beta,True,805,3,12312,trainPhase
3,2,C1250,Gamma,Gamma,True,878,3,12312,trainPhase
4,2,A150,Alpha,Alpha,True,838,3,12312,trainPhase
5,2,A50,Alpha,Alpha,True,901,3,12312,trainPhase
6,2,C1150,Gamma,Beta,False,2622,3,12312,trainPhase
7,2,C1450,Gamma,Gamma,True,942,3,12312,trainPhase
8,2,A350,Alpha,Beta,False,975,3,12312,trainPhase
9,2,B950,Beta,Beta,True,1650,3,12312,trainPhase
10,2,C1050,Gamma,Beta,False,1037,3,12312,trainPhase
11,2,A250,Alpha,Alpha,True,2189,3,12312,trainPhase
12,2,B750,Beta,Beta,True,700,3,12312,trainPhase
13,2,A450,Alpha,Alpha,True,1527,3,12312,trainPhase
14,2,B550,Beta,Alpha,False,912,3,12312,trainPhase
0,3,B650,Beta,Beta,True,1069,3,12312,trainPhase
1,3,C1450,Gamma,Gamma,True,894,3,12312,trainPhase
2,3,C1350,Gamma,Gamma,True,654,3,12312,trainPhase
3,3,A50,Alpha,Alpha,True,894,3,12312,trainPhase
4,3,B850,Beta,Beta,True,1088,3,12312,trainPhase
5,3,A150,Alpha,Alpha,True,1189,3,12312,trainPhase
6,3,C1150,Gamma,Gamma,True,1445,3,12312,trainPhase
7,3,C1050,Gamma,Gamma,True,941,3,12312,trainPhase
8,3,A250,Alpha,Beta,False,1151,3,12312,trainPhase
9,3,C1250,Gamma,Gamma,True,1780,3,12312,trainPhase
10,3,B550,Beta,Beta,True,1081,3,12312,trainPhase
