trial,block,stimId,category,response,accuracy,rt,condition,id,phase
0,0,B750,Beta,Alpha,False,4267,2,12160,trainPhase
1,0,A350,Alpha,Alpha,True,1087,2,12160,trainPhase
2,0,A50,Alpha,Alpha,True,1075,2,12160,trainPhase
3,0,C1150,Gamma,Gamma,True,2598,2,12160,trainPhase
4,0,B650,Beta,Beta,True,2511,2,12160,trainPhase
5,0,B550,Beta,Alpha,False,1117,2,12160,trainPhase
6,0,C1050,Gamma,Gamma,True,1502,2,12160,trainPhase
7,0,B950,Beta,Gamma,False,1102,2,12160,trainPhase
8,0,C1250,Gamma,Gamma,True,1200,2,12160,trainPhase
9,0,B850,Beta,Beta,True,780,2,12160,trainPhase
10,0,C1450,Gamma,Gamma,True,1175,2,12160,trainPhase
11,0,A150,Alpha,Alpha,True,950,2,12160,trainPhase
12,0,A450,Alpha,Alpha,True,1038,2,12160,trainPhase
13,0,C1350,Gamma,Gamma,True,1012,2,12160,trainPhase
14,0,A250,Alpha,Alpha,True,1038,2,12160,trainPhase
0,1,B750,Beta,Alpha,False,1533,2,12160,trainPhase
1,1,C1150,Gamma,Gamma,True,1278,2,12160,trainPhase
2,1,A150,Alpha,Alpha,True,1042,2,12160,trainPhase
3,1,C1350,Gamma,Gamma,True,936,2,12160,trainPhase
4,1,B950,Beta,Gamma,False,1168,2,12160,trainPhase
5,1,C1050,Gamma,Gamma,True,973,2,12160,trainPhase
6,1,C1250,Gamma,Gamma,True,909,2,12160,trainPhase
7,1,A250,Alpha,Alpha,True,925,2,12160,trainPhase
8,1,A50,Alpha,Alpha,True,1033,2,12160,trainPhase
9,1,C1450,Gamma,Gamma,True,870,2,12160,trainPhase
10,1,B550,Beta,Alpha,False,1203,2,12160,trainPhase
11,1,A450,Alpha,Alpha,True,925,2,12160,trainPhase
12,1,A350,Alpha,Alpha,True,841,2,12160,trainPhase
13,1,B650,Beta,Beta,True,750,2,12160,trainPhase
14,1,B850,Beta,Beta,True,927,2,12160,trainPhase
0,2,C1450,Gamma,Gamma,True,706,2,12160,trainPhase
1,2,B950,Beta,Gamma,False,1305,2,12160,trainPhase
2,2,A150,Alpha,Alpha,True,1798,2,12160,trainPhase
3,2,B650,Beta,Alpha,False,1277,2,12160,trainPhase
4,2,A50,Alpha,Alpha,True,865,2,12160,trainPhase
5,2,A350,Alpha,Alpha,True,989,2,12160,trainPhase
6,2,A250,Alpha,Alpha,True,790,2,12160,trainPhase
7,2,B750,Beta,Beta,True,871,2,12160,trainPhase
8,2,B550,Beta,Alpha,False,3113,2,12160,trainPhase
9,2,A450,Alpha,Beta,False,1262,2,12160,trainPhase
10,2,C1150,Gamma,Gamma,True,1220,2,12160,trainPhase
11,2,C1350,Gamma,Gamma,True,726,2,12160,trainPhase
12,2,C1050,Gamma,Gamma,True,1734,2,12160,trainPhase
13,2,B850,Beta,Beta,True,1187,2,12160,trainPhase
14,2,C1250,Gamma,Gamma,True,797,2,12160,trainPhase
0,3,C1250,Gamma,Gamma,True,781,2,12160,trainPhase
1,3,B850,Beta,Beta,True,1046,2,12160,trainPhase
2,3,B950,Beta,Beta,True,885,2,12160,trainPhase
3,3,C1050,Gamma,Gamma,True,1021,2,12160,trainPhase
4,3,A150,Alpha,Alpha,True,877,2,12160,trainPhase
5,3,A350,Alpha,Alpha,True,805,2,12160,trainPhase
6,3,C1350,Gamma,Gamma,True,848,2,12160,trainPhase
7,3,A50,Alpha,Alpha,True,894,2,12160,trainPhase
8,3,B750,Beta,Beta,True,1999,2,12160,trainPhase
9,3,C1150,Gamma,Gamma,True,1062,2,12160,trainPhase
10,3,B650,Beta,Beta,True,701,2,12160,trainPhase
11,3,A250,Alpha,Alpha,True,1293,2,12160,trainPhase
12,3,A450,Alpha,Alpha,True,1883,2,12160,trainPhase
13,3,B550,Beta,Beta,True,1355,2,12160,trainPhase
14,3,C1450,Gamma,Gamma,True,709,2,12160,trainPhase
0,4,A150,Alpha,Alpha,True,853,2,12160,trainPhase
1,4,B850,Beta,Gamma,False,1125,2,12160,trainPhase
2,4,B950,Beta,Gamma,False,1128,2,12160,trainPhase
3,4,A250,Alpha,Alpha,True,838,2,12160,trainPhase
4,4,B650,Beta,Beta,True,1667,2,12160,trainPhase
5,4,A350,Alpha,Alpha,True,827,2,12160,trainPhase
6,4,C1050,Gamma,Gamma,True,962,2,12160,trainPhase
7,4,C1250,Gamma,Gamma,True,756,2,12160,trainPhase
8,4,B550,Beta,Beta,True,830,2,12160,trainPhase
9,4,C1150,Gamma,Gamma,True,1118,2,12160,trainPhase
10,4,C1450,Gamma,Gamma,True,638,2,12160,trainPhase
11,4,C1350,Gamma,Gamma,True,703,2,12160,trainPhase
12,4,A450,Alpha,Alpha,True,965,2,12160,trainPhase
13,4,A50,Alpha,Alpha,True,2317,2,12160,trainPhase
14,4,B750,Beta,Beta,True,1038,2,12160,trainPhase
0,0,A350,Alpha,Alpha,True,5446,2,12163,trainPhase
1,0,A250,Alpha,Beta,False,3031,2,12163,trainPhase
2,0,A450,Alpha,Alpha,True,1011,2,12163,trainPhase
3,0,C1350,Gamma,Gamma,True,3378,2,12163,trainPhase
4,0,C1250,Gamma,Gamma,True,1918,2,12163,trainPhase
5,0,A50,Alpha,Alpha,True,1204,2,12163,trainPhase
6,0,B550,Beta,Beta,True,1080,2,12163,trainPhase
7,0,B650,Beta,Beta,True,941,2,12163,trainPhase
8,0,C1150,Gamma,Gamma,True,870,2,12163,trainPhase
9,0,B950,Beta,Gamma,False,590,2,12163,trainPhase
10,0,A150,Alpha,Alpha,True,957,2,12163,trainPhase
11,0,C1450,Gamma,Gamma,True,845,2,12163,trainPhase
12,0,B850,Beta,Gamma,False,1461,2,12163,trainPhase
13,0,B750,Beta,Beta,True,893,2,12163,trainPhase
14,0,C1050,Gamma,Gamma,True,1798,2,12163,trainPhase
0,1,A450,Alpha,Beta,False,1306,2,12163,trainPhase
1,1,A50,Alpha,Alpha,True,1133,2,12163,trainPhase
2,1,C1250,Gamma,Gamma,True,1131,2,12163,trainPhase
3,1,A250,Alpha,Alpha,True,1244,2,12163,trainPhase
4,1,B650,Beta,Beta,True,2099,2,12163,trainPhase
5,1,B550,Beta,Alpha,False,2546,2,12163,trainPhase
6,1,C1150,Gamma,Gamma,True,917,2,12163,trainPhase
7,1,C1350,Gamma,Gamma,True,741,2,12163,trainPhase
8,1,C1450,Gamma,Gamma,True,917,2,12163,trainPhase
9,1,A350,Alpha,Alpha,True,1262,2,12163,trainPhase
10,1,B750,Beta,Beta,True,763,2,12163,trainPhase
11,1,A150,Alpha,Alpha,True,782,2,12163,trainPhase
12,1,C1050,Gamma,Gamma,True,1506,2,12163,trainPhase
13,1,B850,Beta,Gamma,False,1333,2,12163,trainPhase
14,1,B950,Beta,Gamma,False,1129,2,12163,trainPhase
0,2,B750,Beta,Beta,True,934,2,12163,trainPhase
1,2,B550,Beta,Beta,True,1501,2,12163,trainPhase
2,2,A50,Alpha,Alpha,True,826,2,12163,trainPhase
3,2,B850,Beta,Beta,True,922,2,12163,trainPhase
4,2,C1350,Gamma,Gamma,True,781,2,12163,trainPhase
5,2,A450,Alpha,Beta,False,1941,2,12163,trainPhase
6,2,A250,Alpha,Alpha,True,741,2,12163,trainPhase
7,2,B950,Beta,Gamma,False,2927,2,12163,trainPhase
8,2,C1450,Gamma,Gamma,True,790,2,12163,trainPhase
9,2,C1250,Gamma,Gamma,True,965,2,12163,trainPhase
10,2,C1150,Gamma,Gamma,True,1029,2,12163,trainPhase
11,2,A150,Alpha,Alpha,True,1439,2,12163,trainPhase
12,2,B650,Beta,Beta,True,1045,2,12163,trainPhase
13,2,A350,Alpha,Alpha,True,908,2,12163,trainPhase
14,2,C1050,Gamma,Beta,False,854,2,12163,trainPhase
0,3,A450,Alpha,Alpha,True,2064,2,12163,trainPhase
1,3,A350,Alpha,Alpha,True,758,2,12163,trainPhase
2,3,C1150,Gamma,Gamma,True,1110,2,12163,trainPhase
3,3,C1050,Gamma,Gamma,True,709,2,12163,trainPhase
4,3,C1450,Gamma,Gamma,True,699,2,12163,trainPhase
5,3,C1250,Gamma,Gamma,True,902,2,12163,trainPhase
6,3,C1350,Gamma,Gamma,True,765,2,12163,trainPhase
7,3,A50,Alpha,Alpha,True,1182,2,12163,trainPhase
8,3,A250,Alpha,Alpha,True,1061,2,12163,trainPhase
9,3,B850,Beta,Beta,True,1158,2,12163,trainPhase
10,3,B550,Beta,Beta,True,1025,2,12163,trainPhase
11,3,A150,Alpha,Alpha,True,734,2,12163,trainPhase
12,3,B750,Beta,Beta,True,1278,2,12163,trainPhase
13,3,B650,Beta,Beta,True,838,2,12163,trainPhase
14,3,B950,Beta,Beta,True,3211,2,12163,trainPhase
0,4,C1350,Gamma,Gamma,True,757,2,12163,trainPhase
1,4,C1150,Gamma,Gamma,True,1141,2,12163,trainPhase
2,4,C1050,Gamma,Gamma,True,887,2,12163,trainPhase
3,4,B850,Beta,Beta,True,1344,2,12163,trainPhase
4,4,B950,Beta,Beta,True,862,2,12163,trainPhase
5,4,A350,Alpha,Alpha,True,773,2,12163,trainPhase
6,4,A250,Alpha,Alpha,True,982,2,12163,trainPhase
7,4,A50,Alpha,Alpha,True,1045,2,12163,trainPhase
8,4,C1250,Gamma,Gamma,True,942,2,12163,trainPhase
9,4,A450,Alpha,Alpha,True,750,2,12163,trainPhase
10,4,A150,Alpha,Alpha,True,797,2,12163,trainPhase
11,4,B750,Beta,Beta,True,1349,2,12163,trainPhase
12,4,B550,Beta,Alpha,False,1373,2,12163,trainPhase
13,4,C1450,Gamma,Gamma,True,845,2,12163,trainPhase
14,4,B650,Beta,Beta,True,1709,2,12163,trainPhase
0,0,C1250,Gamma,Alpha,False,5718,2,12188,trainPhase
1,0,C1450,Gamma,Gamma,True,2171,2,12188,trainPhase
2,0,B950,Beta,Beta,True,1835,2,12188,trainPhase
3,0,B650,Beta,Beta,True,3643,2,12188,trainPhase
4,0,C1350,Gamma,Gamma,True,1014,2,12188,trainPhase
5,0,A250,Alpha,Alpha,True,1205,2,12188,trainPhase
6,0,B850,Beta,Gamma,False,3346,2,12188,trainPhase
7,0,B550,Beta,Beta,True,1385,2,12188,trainPhase
8,0,A50,Alpha,Alpha,True,1478,2,12188,trainPhase
9,0,A450,Alpha,Alpha,True,3582,2,12188,trainPhase
10,0,C1050,Gamma,Gamma,True,4241,2,12188,trainPhase
11,0,C1150,Gamma,Gamma,True,1516,2,12188,trainPhase
12,0,A350,Alpha,Alpha,True,1460,2,12188,trainPhase
13,0,A150,Alpha,Alpha,True,2156,2,12188,trainPhase
14,0,B750,Beta,Beta,True,1528,2,12188,trainPhase
0,1,A50,Alpha,Alpha,True,1028,2,12188,trainPhase
1,1,A150,Alpha,Alpha,True,1461,2,12188,trainPhase
2,1,A350,Alpha,Alpha,True,1316,2,12188,trainPhase
3,1,B950,Beta,Beta,True,1260,2,12188,trainPhase
4,1,B750,Beta,Beta,True,965,2,12188,trainPhase
5,1,B850,Beta,Beta,True,935,2,12188,trainPhase
6,1,C1450,Gamma,Gamma,True,1069,2,12188,trainPhase
7,1,A250,Alpha,Alpha,True,1356,2,12188,trainPhase
8,1,C1350,Gamma,Gamma,True,1194,2,12188,trainPhase
9,1,C1050,Gamma,Gamma,True,2725,2,12188,trainPhase
10,1,B550,Beta,Beta,True,704,2,12188,trainPhase
11,1,C1150,Gamma,Gamma,True,2033,2,12188,trainPhase
12,1,A450,Alpha,Alpha,True,2563,2,12188,trainPhase
13,1,C1250,Gamma,Gamma,True,1090,2,12188,trainPhase
14,1,B650,Beta,Beta,True,821,2,12188,trainPhase
0,2,C1250,Gamma,Gamma,True,1282,2,12188,trainPhase
1,2,B550,Beta,Beta,True,2546,2,12188,trainPhase
2,2,B950,Beta,Beta,True,1905,2,12188,trainPhase
3,2,A50,Alpha,Alpha,True,1376,2,12188,trainPhase
4,2,B750,Beta,Beta,True,1284,2,12188,trainPhase
5,2,A450,Alpha,Beta,False,833,2,12188,trainPhase
6,2,A350,Alpha,Alpha,True,1096,2,12188,trainPhase
7,2,A250,Alpha,Alpha,True,1091,2,12188,trainPhase
8,2,C1150,Gamma,Gamma,True,3750,2,12188,trainPhase
9,2,A150,Alpha,Alpha,True,1208,2,12188,trainPhase
10,2,B650,Beta,Beta,True,885,2,12188,trainPhase
11,2,C1050,Gamma,Beta,False,1557,2,12188,trainPhase
12,2,C1450,Gamma,Gamma,True,1134,2,12188,trainPhase
13,2,B850,Beta,Beta,True,2504,2,12188,trainPhase
14,2,C1350,Gamma,Gamma,True,1244,2,12188,trainPhase
0,3,B750,Beta,Beta,True,2293,2,12188,trainPhase
1,3,B650,Beta,Beta,True,1980,2,12188,trainPhase
2,3,B850,Beta,Beta,True,1064,2,12188,trainPhase
3,3,C1150,Gamma,Gamma,True,921,2,12188,trainPhase
4,3,A250,Alpha,Alpha,True,1076,2,12188,trainPhase
5,3,C1050,Gamma,Gamma,True,1799,2,12188,trainPhase
6,3,B550,Beta,Beta,True,771,2,12188,trainPhase
7,3,A350,Alpha,Alpha,True,2239,2,12188,trainPhase
8,3,C1250,Gamma,Gamma,True,985,2,12188,trainPhase
9,3,C1350,Gamma,Gamma,True,1067,2,12188,trainPhase
10,3,A150,Alpha,Alpha,True,1259,2,12188,trainPhase
11,3,C1450,Gamma,Gamma,True,1309,2,12188,trainPhase
12,3,B950,Beta,Beta,True,1781,2,12188,trainPhase
13,3,A50,Alpha,Alpha,True,1069,2,12188,trainPhase
14,3,A450,Alpha,Alpha,True,1308,2,12188,trainPhase
0,4,A150,Alpha,Alpha,True,950,2,12188,trainPhase
1,4,B950,Beta,Beta,True,1574,2,12188,trainPhase
2,4,A50,Alpha,Alpha,True,1140,2,12188,trainPhase
3,4,C1150,Gamma,Gamma,True,1245,2,12188,trainPhase
4,4,C1050,Gamma,Beta,False,1241,2,12188,trainPhase
5,4,C1350,Gamma,Gamma,True,966,2,12188,trainPhase
6,4,A350,Alpha,Alpha,True,1116,2,12188,trainPhase
7,4,C1250,Gamma,Gamma,True,1065,2,12188,trainPhase
8,4,A250,Alpha,Alpha,True,958,2,12188,trainPhase
9,4,C1450,Gamma,Gamma,True,888,2,12188,trainPhase
10,4,B650,Beta,Beta,True,1055,2,12188,trainPhase
11,4,A450,Alpha,Alpha,True,1228,2,12188,trainPhase
12,4,B750,Beta,Beta,True,901,2,12188,trainPhase
13,4,B550,Beta,Beta,True,916,2,12188,trainPhase
14,4,B850,Beta,Beta,True,1066,2,12188,trainPhase
0,0,C1350,Gamma,Alpha,False,3331,2,12192,trainPhase
1,0,C1150,Gamma,Alpha,False,5230,2,12192,trainPhase
2,0,B950,Beta,Gamma,False,3444,2,12192,trainPhase
3,0,A150,Alpha,Alpha,True,5121,2,12192,trainPhase
4,0,B850,Beta,Beta,True,2884,2,12192,trainPhase
5,0,A350,Alpha,Beta,False,3916,2,12192,trainPhase
6,0,A50,Alpha,Alpha,True,1393,2,12192,trainPhase
7,0,B550,Beta,Beta,True,3205,2,12192,trainPhase
8,0,A450,Alpha,Alpha,True,2287,2,12192,trainPhase
9,0,C1050,Gamma,Gamma,True,1712,2,12192,trainPhase
10,0,B750,Beta,Gamma,False,4843,2,12192,trainPhase
11,0,A250,Alpha,Alpha,True,2987,2,12192,trainPhase
12,0,B650,Beta,Beta,True,3108,2,12192,trainPhase
13,0,C1450,Gamma,Gamma,True,1193,2,12192,trainPhase
14,0,C1250,Gamma,Gamma,True,1104,2,12192,trainPhase
0,1,C1150,Gamma,Gamma,True,2150,2,12192,trainPhase
1,1,B550,Beta,Beta,True,1098,2,12192,trainPhase
2,1,B850,Beta,Beta,True,1634,2,12192,trainPhase
3,1,A50,Alpha,Alpha,True,1256,2,12192,trainPhase
4,1,C1350,Gamma,Gamma,True,3261,2,12192,trainPhase
5,1,B950,Beta,Gamma,False,3462,2,12192,trainPhase
6,1,B650,Beta,Beta,True,2701,2,12192,trainPhase
7,1,A150,Alpha,Alpha,True,1293,2,12192,trainPhase
8,1,B750,Beta,Beta,True,1028,2,12192,trainPhase
9,1,C1050,Gamma,Gamma,True,2706,2,12192,trainPhase
10,1,C1250,Gamma,Gamma,True,874,2,12192,trainPhase
11,1,A250,Alpha,Alpha,True,3381,2,12192,trainPhase
12,1,A450,Alpha,Beta,False,1390,2,12192,trainPhase
13,1,A350,Alpha,Alpha,True,2729,2,12192,trainPhase
14,1,C1450,Gamma,Gamma,True,2649,2,12192,trainPhase
0,2,A150,Alpha,Alpha,True,2671,2,12192,trainPhase
1,2,C1350,Gamma,Gamma,True,4373,2,12192,trainPhase
2,2,A450,Alpha,Beta,False,9892,2,12192,trainPhase
3,2,C1250,Gamma,Gamma,True,2825,2,12192,trainPhase
4,2,C1450,Gamma,Gamma,True,1622,2,12192,trainPhase
5,2,A50,Alpha,Alpha,True,1302,2,12192,trainPhase
6,2,A250,Alpha,Alpha,True,933,2,12192,trainPhase
7,2,C1050,Gamma,Beta,False,966,2,12192,trainPhase
8,2,B750,Beta,Beta,True,941,2,12192,trainPhase
9,2,B650,Beta,Beta,True,1006,2,12192,trainPhase
10,2,A350,Alpha,Alpha,True,2174,2,12192,trainPhase
11,2,C1150,Gamma,Gamma,True,1886,2,12192,trainPhase
12,2,B950,Beta,Beta,True,3774,2,12192,trainPhase
13,2,B550,Beta,Beta,True,1954,2,12192,trainPhase
14,2,B850,Beta,Beta,True,4277,2,12192,trainPhase
0,3,A350,Alpha,Alpha,True,1536,2,12192,trainPhase
1,3,C1450,Gamma,Gamma,True,1358,2,12192,trainPhase
2,3,B850,Beta,Beta,True,7426,2,12192,trainPhase
3,3,B950,Beta,Beta,True,1141,2,12192,trainPhase
4,3,A450,Alpha,Beta,False,961,2,12192,trainPhase
5,3,B650,Beta,Beta,True,4751,2,12192,trainPhase
6,3,B550,Beta,Beta,True,2983,2,12192,trainPhase
7,3,C1250,Gamma,Gamma,True,1805,2,12192,trainPhase
8,3,C1050,Gamma,Gamma,True,4867,2,12192,trainPhase
9,3,C1150,Gamma,Gamma,True,966,2,12192,trainPhase
10,3,A50,Alpha,Alpha,True,1249,2,12192,trainPhase
11,3,C1350,Gamma,Gamma,True,1644,2,12192,trainPhase
12,3,B750,Beta,Beta,True,4122,2,12192,trainPhase
13,3,A150,Alpha,Alpha,True,1191,2,12192,trainPhase
14,3,A250,Alpha,Alpha,True,1006,2,12192,trainPhase
0,4,B550,Beta,Beta,True,9245,2,12192,trainPhase
1,4,A350,Alpha,Alpha,True,3053,2,12192,trainPhase
2,4,C1350,Gamma,Gamma,True,1022,2,12192,trainPhase
3,4,C1150,Gamma,Gamma,True,4125,2,12192,trainPhase
4,4,B650,Beta,Beta,True,2922,2,12192,trainPhase
5,4,A50,Alpha,Alpha,True,948,2,12192,trainPhase
6,4,B750,Beta,Beta,True,2845,2,12192,trainPhase
7,4,C1250,Gamma,Gamma,True,1377,2,12192,trainPhase
8,4,C1450,Gamma,Gamma,True,1256,2,12192,trainPhase
9,4,C1050,Gamma,Gamma,True,6013,2,12192,trainPhase
10,4,B950,Beta,Beta,True,10953,2,12192,trainPhase
11,4,A250,Alpha,Alpha,True,2639,2,12192,trainPhase
12,4,B850,Beta,Beta,True,2557,2,12192,trainPhase
13,4,A150,Alpha,Alpha,True,3553,2,12192,trainPhase
14,4,A450,Alpha,Alpha,True,11777,2,12192,trainPhase
0,0,A150,Alpha,Alpha,True,7826,2,12197,trainPhase
1,0,C1350,Gamma,Gamma,True,2644,2,12197,trainPhase
2,0,C1150,Gamma,Beta,False,2074,2,12197,trainPhase
3,0,C1450,Gamma,Gamma,True,1523,2,12197,trainPhase
4,0,B950,Beta,Gamma,False,2525,2,12197,trainPhase
5,0,B650,Beta,Beta,True,933,2,12197,trainPhase
6,0,A350,Alpha,Alpha,True,2102,2,12197,trainPhase
7,0,B850,Beta,Beta,True,1575,2,12197,trainPhase
8,0,A450,Alpha,Beta,False,1173,2,12197,trainPhase
9,0,A250,Alpha,Alpha,True,2081,2,12197,trainPhase
10,0,B750,Beta,Beta,True,2513,2,12197,trainPhase
11,0,B550,Beta,Beta,True,1303,2,12197,trainPhase
12,0,C1250,Gamma,Gamma,True,1192,2,12197,trainPhase
13,0,A50,Alpha,Alpha,True,1282,2,12197,trainPhase
14,0,C1050,Gamma,Gamma,True,2221,2,12197,trainPhase
0,1,B650,Beta,Beta,True,782,2,12197,trainPhase
1,1,C1150,Gamma,Gamma,True,1929,2,12197,trainPhase
2,1,A50,Alpha,Alpha,True,1089,2,12197,trainPhase
3,1,B950,Beta,Gamma,False,3906,2,12197,trainPhase
4,1,A450,Alpha,Alpha,True,2249,2,12197,trainPhase
5,1,C1350,Gamma,Gamma,True,1286,2,12197,trainPhase
6,1,B850,Beta,Beta,True,1205,2,12197,trainPhase
7,1,A150,Alpha,Alpha,True,1006,2,12197,trainPhase
8,1,B750,Beta,Beta,True,2225,2,12197,trainPhase
9,1,A250,Alpha,Alpha,True,1041,2,12197,trainPhase
10,1,C1250,Gamma,Gamma,True,1011,2,12197,trainPhase
11,1,C1050,Gamma,Gamma,True,2153,2,12197,trainPhase
12,1,C1450,Gamma,Gamma,True,1039,2,12197,trainPhase
13,1,A350,Alpha,Alpha,True,1052,2,12197,trainPhase
14,1,B550,Beta,Beta,True,885,2,12197,trainPhase
0,2,A150,Alpha,Alpha,True,916,2,12197,trainPhase
1,2,C1350,Gamma,Gamma,True,1497,2,12197,trainPhase
2,2,B850,Beta,Beta,True,964,2,12197,trainPhase
3,2,B550,Beta,Beta,True,969,2,12197,trainPhase
4,2,A350,Alpha,Alpha,True,865,2,12197,trainPhase
5,2,B950,Beta,Beta,True,1103,2,12197,trainPhase
6,2,C1450,Gamma,Gamma,True,853,2,12197,trainPhase
7,2,A450,Alpha,Alpha,True,1034,2,12197,trainPhase
8,2,C1150,Gamma,Gamma,True,2560,2,12197,trainPhase
9,2,A250,Alpha,Alpha,True,1040,2,12197,trainPhase
10,2,C1250,Gamma,Gamma,True,1057,2,12197,trainPhase
11,2,B650,Beta,Beta,True,1291,2,12197,trainPhase
12,2,A50,Alpha,Alpha,True,935,2,12197,trainPhase
13,2,B750,Beta,Beta,True,771,2,12197,trainPhase
14,2,C1050,Gamma,Gamma,True,1330,2,12197,trainPhase
0,3,B950,Beta,Beta,True,1225,2,12197,trainPhase
1,3,C1250,Gamma,Gamma,True,1133,2,12197,trainPhase
2,3,C1450,Gamma,Gamma,True,1531,2,12197,trainPhase
3,3,C1050,Gamma,Gamma,True,2356,2,12197,trainPhase
4,3,A350,Alpha,Alpha,True,1477,2,12197,trainPhase
5,3,B850,Beta,Beta,True,679,2,12197,trainPhase
6,3,A50,Alpha,Alpha,True,867,2,12197,trainPhase
7,3,A150,Alpha,Alpha,True,1245,2,12197,trainPhase
8,3,B550,Beta,Beta,True,960,2,12197,trainPhase
9,3,A450,Alpha,Beta,False,891,2,12197,trainPhase
10,3,C1350,Gamma,Gamma,True,1237,2,12197,trainPhase
11,3,C1150,Gamma,Gamma,True,1180,2,12197,trainPhase
12,3,B750,Beta,Beta,True,873,2,12197,trainPhase
13,3,B650,Beta,Beta,True,917,2,12197,trainPhase
14,3,A250,Alpha,Alpha,True,1005,2,12197,trainPhase
0,4,B550,Beta,Beta,True,1631,2,12197,trainPhase
1,4,C1350,Gamma,Gamma,True,1052,2,12197,trainPhase
2,4,B950,Beta,Beta,True,1706,2,12197,trainPhase
3,4,C1150,Gamma,Gamma,True,1102,2,12197,trainPhase
4,4,A150,Alpha,Alpha,True,891,2,12197,trainPhase
5,4,A350,Alpha,Alpha,True,1794,2,12197,trainPhase
6,4,C1450,Gamma,Gamma,True,1040,2,12197,trainPhase
7,4,A250,Alpha,Alpha,True,1133,2,12197,trainPhase
8,4,C1050,Gamma,Beta,False,1001,2,12197,trainPhase
9,4,C1250,Gamma,Gamma,True,913,2,12197,trainPhase
10,4,A450,Alpha,Beta,False,1103,2,12197,trainPhase
11,4,B850,Beta,Beta,True,725,2,12197,trainPhase
12,4,A50,Alpha,Alpha,True,841,2,12197,trainPhase
13,4,B650,Beta,Beta,True,677,2,12197,trainPhase
14,4,B750,Beta,Beta,True,886,2,12197,trainPhase
0,0,C1450,Gamma,Alpha,False,4927,2,12219,trainPhase
1,0,C1050,Gamma,Beta,False,1855,2,12219,trainPhase
2,0,A250,Alpha,Beta,False,1523,2,12219,trainPhase
3,0,C1350,Gamma,Gamma,True,2089,2,12219,trainPhase
4,0,A350,Alpha,Alpha,True,1754,2,12219,trainPhase
5,0,B650,Beta,Beta,True,3769,2,12219,trainPhase
6,0,C1150,Gamma,Gamma,True,1490,2,12219,trainPhase
7,0,A150,Alpha,Alpha,True,1173,2,12219,trainPhase
8,0,B950,Beta,Beta,True,1061,2,12219,trainPhase
9,0,B850,Beta,Beta,True,1313,2,12219,trainPhase
10,0,A450,Alpha,Alpha,True,1952,2,12219,trainPhase
11,0,C1250,Gamma,Gamma,True,1128,2,12219,trainPhase
12,0,B550,Beta,Beta,True,1401,2,12219,trainPhase
13,0,B750,Beta,Beta,True,1323,2,12219,trainPhase
14,0,A50,Alpha,Alpha,True,1098,2,12219,trainPhase
0,1,A450,Alpha,Beta,False,814,2,12219,trainPhase
1,1,A50,Alpha,Alpha,True,1090,2,12219,trainPhase
2,1,B950,Beta,Beta,True,3076,2,12219,trainPhase
3,1,C1150,Gamma,Gamma,True,1070,2,12219,trainPhase
4,1,B850,Beta,Beta,True,887,2,12219,trainPhase
5,1,B550,Beta,Beta,True,4528,2,12219,trainPhase
6,1,C1050,Gamma,Gamma,True,3465,2,12219,trainPhase
7,1,A250,Alpha,Alpha,True,1486,2,12219,trainPhase
8,1,C1450,Gamma,Gamma,True,1426,2,12219,trainPhase
9,1,B650,Beta,Beta,True,1666,2,12219,trainPhase
10,1,B750,Beta,Beta,True,1295,2,12219,trainPhase
11,1,A150,Alpha,Alpha,True,906,2,12219,trainPhase
12,1,C1350,Gamma,Gamma,True,991,2,12219,trainPhase
13,1,C1250,Gamma,Gamma,True,1014,2,12219,trainPhase
14,1,A350,Alpha,Alpha,True,1420,2,12219,trainPhase
0,2,A250,Alpha,Alpha,True,929,2,12219,trainPhase
1,2,B850,Beta,Beta,True,1421,2,12219,trainPhase
2,2,B650,Beta,Beta,True,1587,2,12219,trainPhase
3,2,A350,Alpha,Alpha,True,1026,2,12219,trainPhase
4,2,A50,Alpha,Alpha,True,815,2,12219,trainPhase
5,2,A450,Alpha,Beta,False,948,2,12219,trainPhase
6,2,B950,Beta,Beta,True,1664,2,12219,trainPhase
7,2,B550,Beta,Beta,True,960,2,12219,trainPhase
8,2,A150,Alpha,Alpha,True,920,2,12219,trainPhase
9,2,C1250,Gamma,Gamma,True,1196,2,12219,trainPhase
10,2,B750,Beta,Beta,True,906,2,12219,trainPhase
11,2,C1350,Gamma,Gamma,True,852,2,12219,trainPhase
12,2,C1150,Gamma,Gamma,True,862,2,12219,trainPhase
13,2,C1050,Gamma,Gamma,True,933,2,12219,trainPhase
14,2,C1450,Gamma,Gamma,True,951,2,12219,trainPhase
0,3,B550,Beta,Beta,True,843,2,12219,trainPhase
1,3,C1050,Gamma,Gamma,True,1525,2,12219,trainPhase
2,3,C1150,Gamma,Gamma,True,877,2,12219,trainPhase
3,3,A250,Alpha,Alpha,True,1335,2,12219,trainPhase
4,3,C1350,Gamma,Gamma,True,938,2,12219,trainPhase
5,3,A150,Alpha,Alpha,True,1035,2,12219,trainPhase
6,3,B650,Beta,Beta,True,1759,2,12219,trainPhase
7,3,C1250,Gamma,Gamma,True,1095,2,12219,trainPhase
8,3,C1450,Gamma,Gamma,True,993,2,12219,trainPhase
9,3,B850,Beta,Beta,True,2008,2,12219,trainPhase
10,3,B950,Beta,Beta,True,1039,2,12219,trainPhase
11,3,B750,Beta,Beta,True,995,2,12219,trainPhase
12,3,A50,Alpha,Alpha,True,937,2,12219,trainPhase
13,3,A450,Alpha,Alpha,True,941,2,12219,trainPhase
14,3,A350,Alpha,Alpha,True,951,2,12219,trainPhase
0,4,C1150,Gamma,Gamma,True,1628,2,12219,trainPhase
1,4,A50,Alpha,Alpha,True,870,2,12219,trainPhase
2,4,C1050,Gamma,Gamma,True,2131,2,12219,trainPhase
3,4,C1350,Gamma,Gamma,True,831,2,12219,trainPhase
4,4,C1250,Gamma,Gamma,True,886,2,12219,trainPhase
5,4,B550,Beta,Beta,True,1461,2,12219,trainPhase
6,4,B650,Beta,Beta,True,799,2,12219,trainPhase
7,4,B850,Beta,Beta,True,1191,2,12219,trainPhase
8,4,A350,Alpha,Alpha,True,2728,2,12219,trainPhase
9,4,B950,Beta,Beta,True,2140,2,12219,trainPhase
10,4,B750,Beta,Beta,True,1253,2,12219,trainPhase
11,4,A250,Alpha,Alpha,True,1398,2,12219,trainPhase
12,4,A450,Alpha,Beta,False,4092,2,12219,trainPhase
13,4,A150,Alpha,Alpha,True,945,2,12219,trainPhase
14,4,C1450,Gamma,Gamma,True,806,2,12219,trainPhase
0,0,A50,Alpha,Alpha,True,3768,2,12222,trainPhase
1,0,B950,Beta,Beta,True,2397,2,12222,trainPhase
2,0,C1250,Gamma,Gamma,True,1359,2,12222,trainPhase
3,0,A150,Alpha,Alpha,True,1174,2,12222,trainPhase
4,0,C1150,Gamma,Gamma,True,1244,2,12222,trainPhase
5,0,B550,Beta,Beta,True,1156,2,12222,trainPhase
6,0,B650,Beta,Beta,True,1353,2,12222,trainPhase
7,0,A250,Alpha,Alpha,True,1299,2,12222,trainPhase
8,0,B750,Beta,Gamma,False,4092,2,12222,trainPhase
9,0,C1050,Gamma,Gamma,True,1025,2,12222,trainPhase
10,0,C1350,Gamma,Gamma,True,988,2,12222,trainPhase
11,0,B850,Beta,Beta,True,790,2,12222,trainPhase
12,0,C1450,Gamma,Gamma,True,798,2,12222,trainPhase
13,0,A350,Alpha,Alpha,True,1062,2,12222,trainPhase
14,0,A450,Alpha,Alpha,True,973,2,12222,trainPhase
0,1,A350,Alpha,Alpha,True,1005,2,12222,trainPhase
1,1,C1450,Gamma,Gamma,True,750,2,12222,trainPhase
2,1,A250,Alpha,Alpha,True,1147,2,12222,trainPhase
3,1,A150,Alpha,Alpha,True,978,2,12222,trainPhase
4,1,C1350,Gamma,Gamma,True,733,2,12222,trainPhase
5,1,B750,Beta,Beta,True,757,2,12222,trainPhase
6,1,A450,Alpha,Alpha,True,1134,2,12222,trainPhase
7,1,A50,Alpha,Alpha,True,998,2,12222,trainPhase
8,1,C1250,Gamma,Gamma,True,756,2,12222,trainPhase
9,1,B650,Beta,Beta,True,758,2,12222,trainPhase
10,1,B850,Beta,Beta,True,1986,2,12222,trainPhase
11,1,B950,Beta,Beta,True,1710,2,12222,trainPhase
12,1,B550,Beta,Beta,True,3621,2,12222,trainPhase
13,1,C1050,Gamma,Gamma,True,837,2,12222,trainPhase
14,1,C1150,Gamma,Gamma,True,854,2,12222,trainPhase
0,2,B750,Beta,Beta,True,893,2,12222,trainPhase
1,2,B850,Beta,Beta,True,869,2,12222,trainPhase
2,2,B550,Beta,Beta,True,2380,2,12222,trainPhase
3,2,A150,Alpha,Alpha,True,830,2,12222,trainPhase
4,2,A350,Alpha,Alpha,True,1717,2,12222,trainPhase
5,2,A450,Alpha,Alpha,True,2631,2,12222,trainPhase
6,2,A50,Alpha,Alpha,True,710,2,12222,trainPhase
7,2,B650,Beta,Beta,True,765,2,12222,trainPhase
8,2,B950,Beta,Gamma,False,791,2,12222,trainPhase
9,2,A250,Alpha,Beta,False,686,2,12222,trainPhase
10,2,C1150,Gamma,Gamma,True,1056,2,12222,trainPhase
11,2,C1050,Gamma,Gamma,True,838,2,12222,trainPhase
12,2,C1450,Gamma,Gamma,True,653,2,12222,trainPhase
13,2,C1350,Gamma,Gamma,True,669,2,12222,trainPhase
14,2,C1250,Gamma,Gamma,True,829,2,12222,trainPhase
0,3,A150,Alpha,Alpha,True,855,2,12222,trainPhase
1,3,B750,Beta,Beta,True,967,2,12222,trainPhase
2,3,C1150,Gamma,Gamma,True,781,2,12222,trainPhase
3,3,B650,Beta,Beta,True,872,2,12222,trainPhase
4,3,A450,Alpha,Beta,False,698,2,12222,trainPhase
5,3,C1050,Gamma,Gamma,True,972,2,12222,trainPhase
6,3,C1350,Gamma,Gamma,True,734,2,12222,trainPhase
7,3,B950,Beta,Beta,True,1030,2,12222,trainPhase
8,3,B550,Beta,Beta,True,1161,2,12222,trainPhase
9,3,C1250,Gamma,Gamma,True,870,2,12222,trainPhase
10,3,C1450,Gamma,Gamma,True,582,2,12222,trainPhase
11,3,A350,Alpha,Alpha,True,4661,2,12222,trainPhase
12,3,A250,Alpha,Alpha,True,853,2,12222,trainPhase
13,3,B850,Beta,Beta,True,1950,2,12222,trainPhase
14,3,A50,Alpha,Alpha,True,878,2,12222,trainPhase
0,4,B750,Beta,Beta,True,789,2,12222,trainPhase
1,4,C1150,Gamma,Gamma,True,736,2,12222,trainPhase
2,4,A50,Alpha,Alpha,True,894,2,12222,trainPhase
3,4,C1350,Gamma,Gamma,True,1237,2,12222,trainPhase
4,4,C1050,Gamma,Gamma,True,862,2,12222,trainPhase
5,4,C1450,Gamma,Gamma,True,1254,2,12222,trainPhase
6,4,B850,Beta,Gamma,False,1492,2,12222,trainPhase
7,4,B550,Beta,Beta,True,651,2,12222,trainPhase
8,4,A250,Alpha,Alpha,True,1030,2,12222,trainPhase
9,4,C1250,Gamma,Gamma,True,862,2,12222,trainPhase
10,4,B650,Beta,Beta,True,814,2,12222,trainPhase
11,4,A350,Alpha,Alpha,True,1848,2,12222,trainPhase
12,4,A150,Alpha,Alpha,True,742,2,12222,trainPhase
13,4,A450,Alpha,Beta,False,5087,2,12222,trainPhase
14,4,B950,Beta,Beta,True,1861,2,12222,trainPhase
0,0,A350,Alpha,Alpha,True,4961,2,12250,trainPhase
1,0,B650,Beta,Alpha,False,2988,2,12250,trainPhase
2,0,B950,Beta,Gamma,False,3309,2,12250,trainPhase
3,0,B550,Beta,Alpha,False,2157,2,12250,trainPhase
4,0,B850,Beta,Beta,True,1333,2,12250,trainPhase
5,0,B750,Beta,Beta,True,1261,2,12250,trainPhase
6,0,C1250,Gamma,Gamma,True,1920,2,12250,trainPhase
7,0,C1450,Gamma,Gamma,True,933,2,12250,trainPhase
8,0,C1150,Gamma,Gamma,True,2558,2,12250,trainPhase
9,0,A50,Alpha,Alpha,True,1172,2,12250,trainPhase
10,0,C1050,Gamma,Beta,False,2021,2,12250,trainPhase
11,0,A450,Alpha,Beta,False,1205,2,12250,trainPhase
12,0,A250,Alpha,Alpha,True,1213,2,12250,trainPhase
13,0,C1350,Gamma,Gamma,True,1086,2,12250,trainPhase
14,0,A150,Alpha,Alpha,True,1118,2,12250,trainPhase
0,1,B950,Beta,Beta,True,1461,2,12250,trainPhase
1,1,B850,Beta,Beta,True,1277,2,12250,trainPhase
2,1,A250,Alpha,Alpha,True,1565,2,12250,trainPhase
3,1,A450,Alpha,Alpha,True,3949,2,12250,trainPhase
4,1,A50,Alpha,Alpha,True,1085,2,12250,trainPhase
5,1,C1050,Gamma,Gamma,True,4525,2,12250,trainPhase
6,1,C1450,Gamma,Gamma,True,976,2,12250,trainPhase
7,1,C1250,Gamma,Gamma,True,1181,2,12250,trainPhase
8,1,B750,Beta,Beta,True,1892,2,12250,trainPhase
9,1,C1150,Gamma,Gamma,True,1398,2,12250,trainPhase
10,1,A350,Alpha,Alpha,True,1428,2,12250,trainPhase
11,1,C1350,Gamma,Gamma,True,942,2,12250,trainPhase
12,1,B550,Beta,Alpha,False,1189,2,12250,trainPhase
13,1,B650,Beta,Beta,True,1457,2,12250,trainPhase
14,1,A150,Alpha,Alpha,True,926,2,12250,trainPhase
0,2,B650,Beta,Beta,True,1482,2,12250,trainPhase
1,2,C1350,Gamma,Gamma,True,786,2,12250,trainPhase
2,2,A350,Alpha,Alpha,True,1966,2,12250,trainPhase
3,2,A450,Alpha,Alpha,True,3869,2,12250,trainPhase
4,2,B950,Beta,Beta,True,4069,2,12250,trainPhase
5,2,A50,Alpha,Alpha,True,945,2,12250,trainPhase
6,2,B750,Beta,Beta,True,1748,2,12250,trainPhase
7,2,C1450,Gamma,Gamma,True,1045,2,12250,trainPhase
8,2,C1150,Gamma,Gamma,True,1783,2,12250,trainPhase
9,2,C1250,Gamma,Gamma,True,813,2,12250,trainPhase
10,2,A250,Alpha,Alpha,True,1327,2,12250,trainPhase
11,2,C1050,Gamma,Gamma,True,2517,2,12250,trainPhase
12,2,B850,Beta,Beta,True,1374,2,12250,trainPhase
13,2,A150,Alpha,Alpha,True,854,2,12250,trainPhase
14,2,B550,Beta,Alpha,False,1239,2,12250,trainPhase
0,3,B750,Beta,Alpha,False,1335,2,12250,trainPhase
1,3,C1250,Gamma,Gamma,True,1215,2,12250,trainPhase
2,3,C1050,Gamma,Gamma,True,2360,2,12250,trainPhase
3,3,A50,Alpha,Alpha,True,2637,2,12250,trainPhase
4,3,B550,Beta,Beta,True,3986,2,12250,trainPhase
5,3,C1150,Gamma,Gamma,True,1174,2,12250,trainPhase
6,3,A450,Alpha,Alpha,True,1406,2,12250,trainPhase
7,3,A150,Alpha,Alpha,True,1020,2,12250,trainPhase
8,3,A350,Alpha,Alpha,True,768,2,12250,trainPhase
9,3,C1350,Gamma,Gamma,True,725,2,12250,trainPhase
10,3,B650,Beta,Beta,True,1190,2,12250,trainPhase
11,3,B850,Beta,Beta,True,2405,2,12250,trainPhase
12,3,A250,Alpha,Alpha,True,2862,2,12250,trainPhase
13,3,C1450,Gamma,Gamma,True,3049,2,12250,trainPhase
14,3,B950,Beta,Beta,True,1258,2,12250,trainPhase
0,4,B550,Beta,Beta,True,2239,2,12250,trainPhase
1,4,C1350,Gamma,Gamma,True,902,2,12250,trainPhase
2,4,A50,Alpha,Alpha,True,814,2,12250,trainPhase
3,4,C1050,Gamma,Gamma,True,3319,2,12250,trainPhase
4,4,A250,Alpha,Alpha,True,1179,2,12250,trainPhase
5,4,C1150,Gamma,Gamma,True,1384,2,12250,trainPhase
6,4,A450,Alpha,Beta,False,802,2,12250,trainPhase
7,4,C1450,Gamma,Gamma,True,1486,2,12250,trainPhase
8,4,B950,Beta,Beta,True,938,2,12250,trainPhase
9,4,A350,Alpha,Alpha,True,965,2,12250,trainPhase
10,4,A150,Alpha,Alpha,True,757,2,12250,trainPhase
11,4,B650,Beta,Beta,True,1397,2,12250,trainPhase
12,4,C1250,Gamma,Gamma,True,1038,2,12250,trainPhase
13,4,B750,Beta,Beta,True,4256,2,12250,trainPhase
14,4,B850,Beta,Beta,True,1173,2,12250,trainPhase
0,0,B950,Beta,Beta,True,13889,2,12276,trainPhase
1,0,C1350,Gamma,Gamma,True,1453,2,12276,trainPhase
2,0,C1050,Gamma,Gamma,True,1383,2,12276,trainPhase
3,0,C1150,Gamma,Gamma,True,1144,2,12276,trainPhase
4,0,A350,Alpha,Alpha,True,2769,2,12276,trainPhase
5,0,C1450,Gamma,Gamma,True,1189,2,12276,trainPhase
6,0,A150,Alpha,Alpha,True,1535,2,12276,trainPhase
7,0,B750,Beta,Beta,True,1725,2,12276,trainPhase
8,0,A250,Alpha,Alpha,True,1405,2,12276,trainPhase
9,0,A50,Alpha,Alpha,True,866,2,12276,trainPhase
10,0,B650,Beta,Beta,True,1299,2,12276,trainPhase
11,0,B550,Beta,Beta,True,1609,2,12276,trainPhase
12,0,A450,Alpha,Beta,False,905,2,12276,trainPhase
13,0,C1250,Gamma,Gamma,True,1246,2,12276,trainPhase
14,0,B850,Beta,Gamma,False,925,2,12276,trainPhase
0,1,A50,Alpha,Alpha,True,1083,2,12276,trainPhase
1,1,C1250,Gamma,Gamma,True,1088,2,12276,trainPhase
2,1,C1150,Gamma,Gamma,True,751,2,12276,trainPhase
3,1,B950,Beta,Gamma,False,1033,2,12276,trainPhase
4,1,B650,Beta,Beta,True,2271,2,12276,trainPhase
5,1,B550,Beta,Beta,True,757,2,12276,trainPhase
6,1,B850,Beta,Beta,True,1725,2,12276,trainPhase
7,1,A350,Alpha,Alpha,True,1180,2,12276,trainPhase
8,1,C1050,Gamma,Beta,False,1077,2,12276,trainPhase
9,1,C1350,Gamma,Gamma,True,1227,2,12276,trainPhase
10,1,A450,Alpha,Beta,False,987,2,12276,trainPhase
11,1,A150,Alpha,Alpha,True,1688,2,12276,trainPhase
12,1,B750,Beta,Beta,True,1242,2,12276,trainPhase
13,1,C1450,Gamma,Gamma,True,782,2,12276,trainPhase
14,1,A250,Alpha,Alpha,True,1164,2,12276,trainPhase
0,2,A450,Alpha,Alpha,True,644,2,12276,trainPhase
1,2,C1350,Gamma,Gamma,True,915,2,12276,trainPhase
2,2,A350,Alpha,Alpha,True,2591,2,12276,trainPhase
3,2,C1250,Gamma,Gamma,True,1446,2,12276,trainPhase
4,2,B950,Beta,Beta,True,1507,2,12276,trainPhase
5,2,B550,Beta,Beta,True,1325,2,12276,trainPhase
6,2,A150,Alpha,Alpha,True,822,2,12276,trainPhase
7,2,C1150,Gamma,Gamma,True,1226,2,12276,trainPhase
8,2,B850,Beta,Beta,True,2922,2,12276,trainPhase
9,2,C1450,Gamma,Gamma,True,843,2,12276,trainPhase
10,2,A250,Alpha,Alpha,True,928,2,12276,trainPhase
11,2,B750,Beta,Beta,True,1021,2,12276,trainPhase
12,2,C1050,Gamma,Beta,False,1430,2,12276,trainPhase
13,2,A50,Alpha,Alpha,True,1062,2,12276,trainPhase
14,2,B650,Beta,Beta,True,1511,2,12276,trainPhase
0,3,A50,Alpha,Alpha,True,1566,2,12276,trainPhase
1,3,B950,Beta,Beta,True,1394,2,12276,trainPhase
2,3,B550,Beta,Beta,True,1419,2,12276,trainPhase
3,3,A150,Alpha,Alpha,True,709,2,12276,trainPhase
4,3,B850,Beta,Beta,True,1270,2,12276,trainPhase
5,3,B750,Beta,Beta,True,1856,2,12276,trainPhase
6,3,C1450,Gamma,Gamma,True,788,2,12276,trainPhase
7,3,C1250,Gamma,Gamma,True,1209,2,12276,trainPhase
8,3,A450,Alpha,Alpha,True,3048,2,12276,trainPhase
9,3,A250,Alpha,Alpha,True,670,2,12276,trainPhase
10,3,C1350,Gamma,Gamma,True,1214,2,12276,trainPhase
11,3,C1050,Gamma,Gamma,True,684,2,12276,trainPhase
12,3,A350,Alpha,Alpha,True,1453,2,12276,trainPhase
13,3,B650,Beta,Beta,True,758,2,12276,trainPhase
14,3,C1150,Gamma,Gamma,True,1942,2,12276,trainPhase
0,4,A50,Alpha,Alpha,True,862,2,12276,trainPhase
1,4,A150,Alpha,Alpha,True,642,2,12276,trainPhase
2,4,A250,Alpha,Alpha,True,514,2,12276,trainPhase
3,4,B850,Beta,Beta,True,1173,2,12276,trainPhase
4,4,C1250,Gamma,Gamma,True,615,2,12276,trainPhase
5,4,C1050,Gamma,Gamma,True,1970,2,12276,trainPhase
6,4,C1150,Gamma,Gamma,True,701,2,12276,trainPhase
7,4,B550,Beta,Beta,True,875,2,12276,trainPhase
8,4,C1450,Gamma,Gamma,True,782,2,12276,trainPhase
9,4,B950,Beta,Gamma,False,725,2,12276,trainPhase
10,4,B750,Beta,Beta,True,957,2,12276,trainPhase
11,4,B650,Beta,Beta,True,501,2,12276,trainPhase
12,4,A450,Alpha,Alpha,True,1603,2,12276,trainPhase
13,4,A350,Alpha,Alpha,True,670,2,12276,trainPhase
14,4,C1350,Gamma,Gamma,True,758,2,12276,trainPhase
0,0,A50,Alpha,Alpha,True,2166,2,12281,trainPhase
1,0,B950,Beta,Alpha,False,2341,2,12281,trainPhase
2,0,C1050,Gamma,Gamma,True,2471,2,12281,trainPhase
3,0,B550,Beta,Beta,True,1426,2,12281,trainPhase
4,0,B750,Beta,Alpha,False,2678,2,12281,trainPhase
5,0,C1350,Gamma,Gamma,True,1565,2,12281,trainPhase
6,0,A150,Alpha,Alpha,True,2149,2,12281,trainPhase
7,0,C1450,Gamma,Beta,False,1669,2,12281,trainPhase
8,0,A250,Alpha,Alpha,True,2411,2,12281,trainPhase
9,0,A450,Alpha,Beta,False,1337,2,12281,trainPhase
10,0,B650,Beta,Alpha,False,1869,2,12281,trainPhase
11,0,C1150,Gamma,Gamma,True,1869,2,12281,trainPhase
12,0,A350,Alpha,Alpha,True,2069,2,12281,trainPhase
13,0,C1250,Gamma,Gamma,True,2541,2,12281,trainPhase
14,0,B850,Beta,Beta,True,2324,2,12281,trainPhase
0,1,C1050,Gamma,Beta,False,2045,2,12281,trainPhase
1,1,A50,Alpha,Alpha,True,1021,2,12281,trainPhase
2,1,C1450,Gamma,Gamma,True,1349,2,12281,trainPhase
3,1,A450,Alpha,Beta,False,1172,2,12281,trainPhase
4,1,C1150,Gamma,Beta,False,1706,2,12281,trainPhase
5,1,B750,Beta,Beta,True,1501,2,12281,trainPhase
6,1,B950,Beta,Gamma,False,1620,2,12281,trainPhase
7,1,C1350,Gamma,Gamma,True,1930,2,12281,trainPhase
8,1,A250,Alpha,Alpha,True,1421,2,12281,trainPhase
9,1,B850,Beta,Beta,True,875,2,12281,trainPhase
10,1,C1250,Gamma,Gamma,True,1555,2,12281,trainPhase
11,1,B550,Beta,Beta,True,854,2,12281,trainPhase
12,1,A150,Alpha,Alpha,True,966,2,12281,trainPhase
13,1,A350,Alpha,Alpha,True,1664,2,12281,trainPhase
14,1,B650,Beta,Beta,True,917,2,12281,trainPhase
0,2,B550,Beta,Alpha,False,1805,2,12281,trainPhase
1,2,C1150,Gamma,Gamma,True,1165,2,12281,trainPhase
2,2,A450,Alpha,Alpha,True,1661,2,12281,trainPhase
3,2,B950,Beta,Beta,True,723,2,12281,trainPhase
4,2,C1050,Gamma,Beta,False,1958,2,12281,trainPhase
5,2,C1250,Gamma,Gamma,True,1006,2,12281,trainPhase
6,2,A150,Alpha,Alpha,True,1093,2,12281,trainPhase
7,2,C1350,Gamma,Gamma,True,1421,2,12281,trainPhase
8,2,B850,Beta,Beta,True,1005,2,12281,trainPhase
9,2,C1450,Gamma,Gamma,True,1269,2,12281,trainPhase
10,2,B650,Beta,Beta,True,2871,2,12281,trainPhase
11,2,B750,Beta,Beta,True,4880,2,12281,trainPhase
12,2,A350,Alpha,Alpha,True,1157,2,12281,trainPhase
13,2,A50,Alpha,Alpha,True,1131,2,12281,trainPhase
14,2,A250,Alpha,Alpha,True,717,2,12281,trainPhase
0,3,A350,Alpha,Alpha,True,676,2,12281,trainPhase
1,3,A450,Alpha,Alpha,True,1262,2,12281,trainPhase
2,3,B850,Beta,Beta,True,773,2,12281,trainPhase
3,3,A150,Alpha,Alpha,True,1070,2,12281,trainPhase
4,3,B750,Beta,Beta,True,1174,2,12281,trainPhase
5,3,B550,Beta,Beta,True,813,2,12281,trainPhase
6,3,C1050,Gamma,Gamma,True,704,2,12281,trainPhase
7,3,B650,Beta,Beta,True,982,2,12281,trainPhase
8,3,C1150,Gamma,Gamma,True,1014,2,12281,trainPhase
9,3,C1350,Gamma,Gamma,True,1293,2,12281,trainPhase
10,3,A50,Alpha,Alpha,True,660,2,12281,trainPhase
11,3,C1250,Gamma,Gamma,True,1052,2,12281,trainPhase
12,3,C1450,Gamma,Gamma,True,964,2,12281,trainPhase
13,3,B950,Beta,Beta,True,1230,2,12281,trainPhase
14,3,A250,Alpha,Alpha,True,1561,2,12281,trainPhase
0,4,A50,Alpha,Alpha,True,790,2,12281,trainPhase
1,4,C1150,Gamma,Gamma,True,1614,2,12281,trainPhase
2,4,B550,Beta,Beta,True,1086,2,12281,trainPhase
3,4,A150,Alpha,Alpha,True,1126,2,12281,trainPhase
4,4,A250,Alpha,Alpha,True,693,2,12281,trainPhase
5,4,A450,Alpha,Alpha,True,756,2,12281,trainPhase
6,4,B650,Beta,Beta,True,870,2,12281,trainPhase
7,4,B850,Beta,Beta,True,1126,2,12281,trainPhase
8,4,B950,Beta,Gamma,False,1006,2,12281,trainPhase
9,4,A350,Alpha,Alpha,True,1560,2,12281,trainPhase
10,4,C1350,Gamma,Gamma,True,974,2,12281,trainPhase
11,4,C1250,Gamma,Gamma,True,1350,2,12281,trainPhase
12,4,C1050,Gamma,Gamma,True,2102,2,12281,trainPhase
13,4,B750,Beta,Beta,True,914,2,12281,trainPhase
14,4,C1450,Gamma,Gamma,True,1014,2,12281,trainPhase
0,0,B750,Beta,Beta,True,4022,2,12287,trainPhase
1,0,A350,Alpha,Alpha,True,1454,2,12287,trainPhase
2,0,B650,Beta,Beta,True,1425,2,12287,trainPhase
3,0,B550,Beta,Beta,True,1394,2,12287,trainPhase
4,0,C1050,Gamma,Gamma,True,1827,2,12287,trainPhase
5,0,A450,Alpha,Beta,False,1715,2,12287,trainPhase
6,0,C1450,Gamma,Gamma,True,1102,2,12287,trainPhase
7,0,A150,Alpha,Alpha,True,943,2,12287,trainPhase
8,0,B850,Beta,Beta,True,1194,2,12287,trainPhase
9,0,C1150,Gamma,Gamma,True,1409,2,12287,trainPhase
10,0,C1350,Gamma,Gamma,True,1533,2,12287,trainPhase
11,0,A250,Alpha,Alpha,True,1148,2,12287,trainPhase
12,0,C1250,Gamma,Beta,False,1266,2,12287,trainPhase
13,0,B950,Beta,Gamma,False,1741,2,12287,trainPhase
14,0,A50,Alpha,Alpha,True,1009,2,12287,trainPhase
0,1,C1450,Gamma,Gamma,True,996,2,12287,trainPhase
1,1,A50,Alpha,Alpha,True,926,2,12287,trainPhase
2,1,C1150,Gamma,Gamma,True,1419,2,12287,trainPhase
3,1,A450,Alpha,Alpha,True,1651,2,12287,trainPhase
4,1,B650,Beta,Alpha,False,1473,2,12287,trainPhase
5,1,A350,Alpha,Alpha,True,998,2,12287,trainPhase
6,1,B850,Beta,Beta,True,1863,2,12287,trainPhase
7,1,C1250,Gamma,Gamma,True,1200,2,12287,trainPhase
8,1,B750,Beta,Beta,True,1129,2,12287,trainPhase
9,1,C1050,Gamma,Gamma,True,1472,2,12287,trainPhase
10,1,A150,Alpha,Alpha,True,900,2,12287,trainPhase
11,1,A250,Alpha,Alpha,True,945,2,12287,trainPhase
12,1,B550,Beta,Alpha,False,1889,2,12287,trainPhase
13,1,B950,Beta,Gamma,False,1076,2,12287,trainPhase
14,1,C1350,Gamma,Gamma,True,866,2,12287,trainPhase
0,2,C1450,Gamma,Gamma,True,929,2,12287,trainPhase
1,2,A450,Alpha,Alpha,True,1147,2,12287,trainPhase
2,2,A150,Alpha,Alpha,True,851,2,12287,trainPhase
3,2,B650,Beta,Beta,True,1784,2,12287,trainPhase
4,2,C1250,Gamma,Gamma,True,1171,2,12287,trainPhase
5,2,B850,Beta,Beta,True,1813,2,12287,trainPhase
6,2,B550,Beta,Alpha,False,960,2,12287,trainPhase
7,2,B950,Beta,Beta,True,1838,2,12287,trainPhase
8,2,C1150,Gamma,Gamma,True,1001,2,12287,trainPhase
9,2,A50,Alpha,Alpha,True,879,2,12287,trainPhase
10,2,B750,Beta,Beta,True,1465,2,12287,trainPhase
11,2,A250,Alpha,Alpha,True,1771,2,12287,trainPhase
12,2,A350,Alpha,Alpha,True,1066,2,12287,trainPhase
13,2,C1350,Gamma,Gamma,True,972,2,12287,trainPhase
14,2,C1050,Gamma,Gamma,True,1575,2,12287,trainPhase
0,3,A350,Alpha,Alpha,True,1407,2,12287,trainPhase
1,3,C1150,Gamma,Gamma,True,1233,2,12287,trainPhase
2,3,C1250,Gamma,Gamma,True,954,2,12287,trainPhase
3,3,B550,Beta,Beta,True,1932,2,12287,trainPhase
4,3,B750,Beta,Beta,True,1348,2,12287,trainPhase
5,3,B650,Beta,Beta,True,923,2,12287,trainPhase
6,3,B950,Beta,Gamma,False,1173,2,12287,trainPhase
7,3,A250,Alpha,Alpha,True,1253,2,12287,trainPhase
8,3,A450,Alpha,Alpha,True,933,2,12287,trainPhase
9,3,A50,Alpha,Alpha,True,885,2,12287,trainPhase
10,3,C1350,Gamma,Gamma,True,1092,2,12287,trainPhase
11,3,B850,Beta,Beta,True,1508,2,12287,trainPhase
12,3,A150,Alpha,Alpha,True,838,2,12287,trainPhase
13,3,C1050,Gamma,Gamma,True,2550,2,12287,trainPhase
14,3,C1450,Gamma,Gamma,True,1031,2,12287,trainPhase
0,4,C1350,Gamma,Gamma,True,1022,2,12287,trainPhase
1,4,B750,Beta,Beta,True,1737,2,12287,trainPhase
2,4,B550,Beta,Beta,True,1041,2,12287,trainPhase
3,4,A350,Alpha,Alpha,True,1859,2,12287,trainPhase
4,4,A50,Alpha,Alpha,True,735,2,12287,trainPhase
5,4,C1050,Gamma,Gamma,True,3321,2,12287,trainPhase
6,4,C1250,Gamma,Gamma,True,1062,2,12287,trainPhase
7,4,C1450,Gamma,Gamma,True,808,2,12287,trainPhase
8,4,B850,Beta,Beta,True,2306,2,12287,trainPhase
9,4,B650,Beta,Beta,True,959,2,12287,trainPhase
10,4,C1150,Gamma,Gamma,True,1158,2,12287,trainPhase
11,4,A150,Alpha,Alpha,True,951,2,12287,trainPhase
12,4,A450,Alpha,Alpha,True,2648,2,12287,trainPhase
13,4,A250,Alpha,Alpha,True,1103,2,12287,trainPhase
14,4,B950,Beta,Beta,True,1176,2,12287,trainPhase
0,0,B850,Beta,Alpha,False,23535,2,12290,trainPhase
1,0,C1350,Gamma,Beta,False,2380,2,12290,trainPhase
2,0,A150,Alpha,Alpha,True,1913,2,12290,trainPhase
3,0,B750,Beta,Beta,True,4057,2,12290,trainPhase
4,0,A350,Alpha,Alpha,True,4252,2,12290,trainPhase
5,0,C1450,Gamma,Gamma,True,1729,2,12290,trainPhase
6,0,B550,Beta,Beta,True,3873,2,12290,trainPhase
7,0,C1050,Gamma,Gamma,True,2109,2,12290,trainPhase
8,0,A450,Alpha,Alpha,True,2974,2,12290,trainPhase
9,0,C1150,Gamma,Gamma,True,2233,2,12290,trainPhase
10,0,A250,Alpha,Alpha,True,1735,2,12290,trainPhase
11,0,B650,Beta,Beta,True,3114,2,12290,trainPhase
12,0,B950,Beta,Beta,True,2014,2,12290,trainPhase
13,0,A50,Alpha,Alpha,True,1412,2,12290,trainPhase
14,0,C1250,Gamma,Gamma,True,1534,2,12290,trainPhase
0,1,B750,Beta,Beta,True,1497,2,12290,trainPhase
1,1,A350,Alpha,Alpha,True,1318,2,12290,trainPhase
2,1,C1350,Gamma,Gamma,True,1125,2,12290,trainPhase
3,1,C1050,Gamma,Gamma,True,1507,2,12290,trainPhase
4,1,A150,Alpha,Alpha,True,1834,2,12290,trainPhase
5,1,B550,Beta,Beta,True,3998,2,12290,trainPhase
6,1,A250,Alpha,Alpha,True,2136,2,12290,trainPhase
7,1,C1150,Gamma,Gamma,True,1911,2,12290,trainPhase
8,1,A450,Alpha,Alpha,True,2531,2,12290,trainPhase
9,1,C1450,Gamma,Gamma,True,1859,2,12290,trainPhase
10,1,C1250,Gamma,Gamma,True,1617,2,12290,trainPhase
11,1,B850,Beta,Beta,True,1846,2,12290,trainPhase
12,1,B650,Beta,Beta,True,1919,2,12290,trainPhase
13,1,B950,Beta,Gamma,False,1493,2,12290,trainPhase
14,1,A50,Alpha,Alpha,True,1274,2,12290,trainPhase
0,2,A50,Alpha,Alpha,True,1341,2,12290,trainPhase
1,2,B850,Beta,Beta,True,6206,2,12290,trainPhase
2,2,B650,Beta,Beta,True,1694,2,12290,trainPhase
3,2,B550,Beta,Beta,True,3089,2,12290,trainPhase
4,2,C1250,Gamma,Gamma,True,1435,2,12290,trainPhase
5,2,C1350,Gamma,Gamma,True,1040,2,12290,trainPhase
6,2,A250,Alpha,Alpha,True,1169,2,12290,trainPhase
7,2,A350,Alpha,Alpha,True,1308,2,12290,trainPhase
8,2,B750,Beta,Beta,True,1369,2,12290,trainPhase
9,2,C1450,Gamma,Gamma,True,1401,2,12290,trainPhase
10,2,A150,Alpha,Alpha,True,1392,2,12290,trainPhase
11,2,C1050,Gamma,Beta,False,2775,2,12290,trainPhase
12,2,A450,Alpha,Alpha,True,4483,2,12290,trainPhase
13,2,B950,Beta,Beta,True,3562,2,12290,trainPhase
14,2,C1150,Gamma,Gamma,True,1340,2,12290,trainPhase
0,3,C1050,Gamma,Gamma,True,1041,2,12290,trainPhase
1,3,A50,Alpha,Alpha,True,1111,2,12290,trainPhase
2,3,B750,Beta,Beta,True,2695,2,12290,trainPhase
3,3,B650,Beta,Beta,True,2088,2,12290,trainPhase
4,3,A250,Alpha,Alpha,True,1196,2,12290,trainPhase
5,3,C1350,Gamma,Gamma,True,1202,2,12290,trainPhase
6,3,C1250,Gamma,Gamma,True,1079,2,12290,trainPhase
7,3,A450,Alpha,Alpha,True,2585,2,12290,trainPhase
8,3,A150,Alpha,Alpha,True,1295,2,12290,trainPhase
9,3,B550,Beta,Alpha,False,1357,2,12290,trainPhase
10,3,B950,Beta,Beta,True,3014,2,12290,trainPhase
11,3,C1450,Gamma,Gamma,True,1244,2,12290,trainPhase
12,3,B850,Beta,Beta,True,1835,2,12290,trainPhase
13,3,C1150,Gamma,Gamma,True,1288,2,12290,trainPhase
14,3,A350,Alpha,Alpha,True,1552,2,12290,trainPhase
0,4,B650,Beta,Beta,True,2667,2,12290,trainPhase
1,4,C1250,Gamma,Gamma,True,1175,2,12290,trainPhase
2,4,A150,Alpha,Alpha,True,1121,2,12290,trainPhase
3,4,C1350,Gamma,Gamma,True,1479,2,12290,trainPhase
4,4,B750,Beta,Beta,True,2158,2,12290,trainPhase
5,4,C1050,Gamma,Gamma,True,1192,2,12290,trainPhase
6,4,A50,Alpha,Alpha,True,1380,2,12290,trainPhase
7,4,B950,Beta,Gamma,False,6156,2,12290,trainPhase
8,4,A250,Alpha,Alpha,True,1331,2,12290,trainPhase
9,4,C1450,Gamma,Gamma,True,1263,2,12290,trainPhase
10,4,B850,Beta,Beta,True,1894,2,12290,trainPhase
11,4,B550,Beta,Beta,True,2373,2,12290,trainPhase
12,4,A350,Alpha,Alpha,True,1768,2,12290,trainPhase
13,4,C1150,Gamma,Gamma,True,1731,2,12290,trainPhase
14,4,A450,Alpha,Alpha,True,3802,2,12290,trainPhase
0,0,A450,Alpha,Alpha,True,2623,2,12299,trainPhase
1,0,C1150,Gamma,Alpha,False,1558,2,12299,trainPhase
2,0,C1450,Gamma,Gamma,True,2509,2,12299,trainPhase
3,0,B750,Beta,Alpha,False,1829,2,12299,trainPhase
4,0,B550,Beta,Alpha,False,1339,2,12299,trainPhase
5,0,B650,Beta,Beta,True,2316,2,12299,trainPhase
6,0,A50,Alpha,Alpha,True,2001,2,12299,trainPhase
7,0,C1250,Gamma,Gamma,True,1409,2,12299,trainPhase
8,0,A250,Alpha,Alpha,True,1505,2,12299,trainPhase
9,0,B950,Beta,Beta,True,1238,2,12299,trainPhase
10,0,B850,Beta,Beta,True,908,2,12299,trainPhase
11,0,C1050,Gamma,Gamma,True,1038,2,12299,trainPhase
12,0,C1350,Gamma,Gamma,True,1106,2,12299,trainPhase
13,0,A150,Alpha,Alpha,True,1292,2,12299,trainPhase
14,0,A350,Alpha,Alpha,True,1708,2,12299,trainPhase
0,1,A450,Alpha,Alpha,True,1185,2,12299,trainPhase
1,1,C1350,Gamma,Gamma,True,1252,2,12299,trainPhase
2,1,C1150,Gamma,Gamma,True,1092,2,12299,trainPhase
3,1,C1450,Gamma,Gamma,True,1059,2,12299,trainPhase
4,1,A250,Alpha,Alpha,True,1322,2,12299,trainPhase
5,1,B850,Beta,Beta,True,1057,2,12299,trainPhase
6,1,A150,Alpha,Alpha,True,1453,2,12299,trainPhase
7,1,C1250,Gamma,Gamma,True,1285,2,12299,trainPhase
8,1,A50,Alpha,Alpha,True,799,2,12299,trainPhase
9,1,B550,Beta,Beta,True,766,2,12299,trainPhase
10,1,B650,Beta,Beta,True,842,2,12299,trainPhase
11,1,C1050,Gamma,Gamma,True,751,2,12299,trainPhase
12,1,B950,Beta,Beta,True,1693,2,12299,trainPhase
13,1,B750,Beta,Beta,True,702,2,12299,trainPhase
14,1,A350,Alpha,Alpha,True,910,2,12299,trainPhase
0,2,C1450,Gamma,Gamma,True,791,2,12299,trainPhase
1,2,B750,Beta,Beta,True,1032,2,12299,trainPhase
2,2,C1250,Gamma,Gamma,True,1014,2,12299,trainPhase
3,2,B850,Beta,Beta,True,921,2,12299,trainPhase
4,2,B650,Beta,Beta,True,620,2,12299,trainPhase
5,2,C1150,Gamma,Gamma,True,1119,2,12299,trainPhase
6,2,A150,Alpha,Alpha,True,959,2,12299,trainPhase
7,2,B550,Beta,Beta,True,622,2,12299,trainPhase
8,2,C1050,Gamma,Gamma,True,947,2,12299,trainPhase
9,2,B950,Beta,Gamma,False,925,2,12299,trainPhase
10,2,A250,Alpha,Alpha,True,965,2,12299,trainPhase
11,2,A450,Alpha,Beta,False,717,2,12299,trainPhase
12,2,A350,Alpha,Alpha,True,972,2,12299,trainPhase
13,2,A50,Alpha,Alpha,True,908,2,12299,trainPhase
14,2,C1350,Gamma,Gamma,True,828,2,12299,trainPhase
0,3,B550,Beta,Beta,True,853,2,12299,trainPhase
1,3,B950,Beta,Beta,True,1513,2,12299,trainPhase
2,3,B650,Beta,Beta,True,602,2,12299,trainPhase
3,3,A250,Alpha,Alpha,True,789,2,12299,trainPhase
4,3,A350,Alpha,Alpha,True,958,2,12299,trainPhase
5,3,C1250,Gamma,Gamma,True,1637,2,12299,trainPhase
6,3,A50,Alpha,Alpha,True,969,2,12299,trainPhase
7,3,C1050,Gamma,Beta,False,1315,2,12299,trainPhase
8,3,A450,Alpha,Beta,False,1205,2,12299,trainPhase
9,3,B850,Beta,Beta,True,941,2,12299,trainPhase
10,3,C1350,Gamma,Gamma,True,589,2,12299,trainPhase
11,3,C1150,Gamma,Gamma,True,819,2,12299,trainPhase
12,3,A150,Alpha,Alpha,True,1013,2,12299,trainPhase
13,3,B750,Beta,Beta,True,1101,2,12299,trainPhase
14,3,C1450,Gamma,Gamma,True,1461,2,12299,trainPhase
0,4,C1150,Gamma,Gamma,True,877,2,12299,trainPhase
1,4,B750,Beta,Beta,True,973,2,12299,trainPhase
2,4,B550,Beta,Beta,True,604,2,12299,trainPhase
3,4,B950,Beta,Gamma,False,1190,2,12299,trainPhase
4,4,A250,Alpha,Beta,False,502,2,12299,trainPhase
5,4,A150,Alpha,Alpha,True,933,2,12299,trainPhase
6,4,C1250,Gamma,Gamma,True,1247,2,12299,trainPhase
7,4,B850,Beta,Beta,True,779,2,12299,trainPhase
8,4,B650,Beta,Beta,True,735,2,12299,trainPhase
9,4,A50,Alpha,Alpha,True,907,2,12299,trainPhase
10,4,C1450,Gamma,Gamma,True,1268,2,12299,trainPhase
11,4,C1050,Gamma,Gamma,True,1630,2,12299,trainPhase
12,4,A450,Alpha,Beta,False,852,2,12299,trainPhase
13,4,A350,Alpha,Alpha,True,891,2,12299,trainPhase
14,4,C1350,Gamma,Gamma,True,1286,2,12299,trainPhase
0,0,B550,Beta,Alpha,False,2201,2,12321,trainPhase
1,0,C1350,Gamma,Alpha,False,1955,2,12321,trainPhase
2,0,B950,Beta,Beta,True,1765,2,12321,trainPhase
3,0,C1450,Gamma,Alpha,False,1640,2,12321,trainPhase
4,0,B650,Beta,Beta,True,1066,2,12321,trainPhase
5,0,A150,Alpha,Alpha,True,1027,2,12321,trainPhase
6,0,B850,Beta,Beta,True,1037,2,12321,trainPhase
7,0,C1050,Gamma,Gamma,True,1702,2,12321,trainPhase
8,0,A250,Alpha,Alpha,True,1528,2,12321,trainPhase
9,0,C1250,Gamma,Gamma,True,1062,2,12321,trainPhase
10,0,B750,Beta,Beta,True,1534,2,12321,trainPhase
11,0,A450,Alpha,Alpha,True,1061,2,12321,trainPhase
12,0,A50,Alpha,Alpha,True,896,2,12321,trainPhase
13,0,C1150,Gamma,Gamma,True,1091,2,12321,trainPhase
14,0,A350,Alpha,Beta,False,992,2,12321,trainPhase
0,1,B550,Beta,Beta,True,1291,2,12321,trainPhase
1,1,C1450,Gamma,Gamma,True,1101,2,12321,trainPhase
2,1,C1050,Gamma,Gamma,True,2573,2,12321,trainPhase
3,1,A50,Alpha,Alpha,True,788,2,12321,trainPhase
4,1,A450,Alpha,Beta,False,1150,2,12321,trainPhase
5,1,B650,Beta,Beta,True,1398,2,12321,trainPhase
6,1,C1350,Gamma,Gamma,True,1246,2,12321,trainPhase
7,1,B850,Beta,Gamma,False,1608,2,12321,trainPhase
8,1,A350,Alpha,Alpha,True,1636,2,12321,trainPhase
9,1,B950,Beta,Gamma,False,1688,2,12321,trainPhase
10,1,B750,Beta,Beta,True,1893,2,12321,trainPhase
11,1,A150,Alpha,Alpha,True,1045,2,12321,trainPhase
12,1,A250,Alpha,Alpha,True,1861,2,12321,trainPhase
13,1,C1150,Gamma,Gamma,True,1046,2,12321,trainPhase
14,1,C1250,Gamma,Gamma,True,1083,2,12321,trainPhase
0,2,A450,Alpha,Alpha,True,2165,2,12321,trainPhase
1,2,B750,Beta,Beta,True,1821,2,12321,trainPhase
2,2,B950,Beta,Gamma,False,2094,2,12321,trainPhase
3,2,C1050,Gamma,Beta,False,1422,2,12321,trainPhase
4,2,C1250,Gamma,Gamma,True,861,2,12321,trainPhase
5,2,B850,Beta,Beta,True,2258,2,12321,trainPhase
6,2,C1450,Gamma,Gamma,True,948,2,12321,trainPhase
7,2,A50,Alpha,Alpha,True,1037,2,12321,trainPhase
8,2,A350,Alpha,Beta,False,902,2,12321,trainPhase
9,2,B650,Beta,Beta,True,2561,2,12321,trainPhase
10,2,C1150,Gamma,Gamma,True,1609,2,12321,trainPhase
11,2,C1350,Gamma,Gamma,True,957,2,12321,trainPhase
12,2,A250,Alpha,Alpha,True,734,2,12321,trainPhase
13,2,B550,Beta,Alpha,False,1302,2,12321,trainPhase
14,2,A150,Alpha,Alpha,True,757,2,12321,trainPhase
0,3,A50,Alpha,Alpha,True,887,2,12321,trainPhase
1,3,B750,Beta,Beta,True,3210,2,12321,trainPhase
2,3,B950,Beta,Gamma,False,1053,2,12321,trainPhase
3,3,B850,Beta,Beta,True,885,2,12321,trainPhase
4,3,B650,Beta,Beta,True,1808,2,12321,trainPhase
5,3,A350,Alpha,Alpha,True,892,2,12321,trainPhase
6,3,C1250,Gamma,Gamma,True,1014,2,12321,trainPhase
7,3,C1150,Gamma,Gamma,True,912,2,12321,trainPhase
8,3,C1450,Gamma,Gamma,True,717,2,12321,trainPhase
9,3,B550,Beta,Beta,True,1821,2,12321,trainPhase
10,3,A250,Alpha,Alpha,True,801,2,12321,trainPhase
11,3,A150,Alpha,Alpha,True,688,2,12321,trainPhase
12,3,C1050,Gamma,Gamma,True,1957,2,12321,trainPhase
13,3,C1350,Gamma,Gamma,True,718,2,12321,trainPhase
14,3,A450,Alpha,Alpha,True,2286,2,12321,trainPhase
0,4,A450,Alpha,Alpha,True,779,2,12321,trainPhase
1,4,B850,Beta,Beta,True,956,2,12321,trainPhase
2,4,C1450,Gamma,Gamma,True,605,2,12321,trainPhase
3,4,C1350,Gamma,Gamma,True,1054,2,12321,trainPhase
4,4,B650,Beta,Beta,True,2230,2,12321,trainPhase
5,4,B550,Beta,Beta,True,1711,2,12321,trainPhase
6,4,A250,Alpha,Alpha,True,1242,2,12321,trainPhase
7,4,A50,Alpha,Alpha,True,574,2,12321,trainPhase
8,4,A350,Alpha,Alpha,True,1294,2,12321,trainPhase
9,4,A150,Alpha,Alpha,True,1326,2,12321,trainPhase
10,4,B950,Beta,Beta,True,2502,2,12321,trainPhase
11,4,B750,Beta,Beta,True,1015,2,12321,trainPhase
12,4,C1250,Gamma,Gamma,True,883,2,12321,trainPhase
13,4,C1050,Gamma,Gamma,True,526,2,12321,trainPhase
14,4,C1150,Gamma,Gamma,True,566,2,12321,trainPhase
