trial,block,stimId,category,response,rt,condition,id,phase
0,0,B750,Beta,6.0,4845,1,11296,typicality2
1,0,A150,Alpha,6.0,2651,1,11296,typicality2
2,0,B550,Beta,6.0,2228,1,11296,typicality2
3,0,C1150,Gamma,6.0,4475,1,11296,typicality2
4,0,B950, Beta,0.0,3053,1,11296,typicality2
5,0,A350,Alpha,4.0,4834,1,11296,typicality2
6,0,C1350,Gamma,6.0,2059,1,11296,typicality2
7,0,A50,Alpha,6.0,1482,1,11296,typicality2
8,0,C1250,Gamma,6.0,1332,1,11296,typicality2
9,0,A250,Alpha,6.0,1157,1,11296,typicality2
10,0,B850,Beta,4.0,3347,1,11296,typicality2
11,0,C1450,Gamma,6.0,1573,1,11296,typicality2
12,0,A450,Alpha,6.0,1179,1,11296,typicality2
13,0,B650,Beta,6.0,1429,1,11296,typicality2
14,0,C1050,Gamma,6.0,1323,1,11296,typicality2
0,0,B650,Beta,4.0,13640,1,12139,typicality2
1,0,A250,Alpha,6.0,3692,1,12139,typicality2
2,0,C1450,Gamma,6.0,4213,1,12139,typicality2
3,0,C1250,Gamma,6.0,1891,1,12139,typicality2
4,0,B550,Beta,4.0,3904,1,12139,typicality2
5,0,B750,Beta,0.9999999999999998,5931,1,12139,typicality2
6,0,B950, Beta,0.0,3323,1,12139,typicality2
7,0,A50,Alpha,5.0,5221,1,12139,typicality2
8,0,C1050,Gamma,6.0,2914,1,12139,typicality2
9,0,B850,Beta,0.0,3634,1,12139,typicality2
10,0,A450,Alpha,5.0,3305,1,12139,typicality2
11,0,A350,Alpha,5.0,2371,1,12139,typicality2
12,0,C1350,Gamma,6.0,2711,1,12139,typicality2
13,0,A150,Alpha,4.0,9002,1,12139,typicality2
14,0,C1150,Gamma,6.0,2857,1,12139,typicality2
0,0,A50,Alpha,6.0,11344,1,12142,typicality2
1,0,B850,Beta,0.9999999999999998,5225,1,12142,typicality2
2,0,A450,Alpha,2.0,2335,1,12142,typicality2
3,0,B550,Beta,2.0,1171,1,12142,typicality2
4,0,A350,Alpha,2.0,430,1,12142,typicality2
5,0,A150,Alpha,6.0,4700,1,12142,typicality2
6,0,C1450,Gamma,0.0,3913,1,12142,typicality2
7,0,C1350,Gamma,0.0,545,1,12142,typicality2
8,0,A250,Alpha,4.0,2988,1,12142,typicality2
9,0,B750,Beta,2.0,2363,1,12142,typicality2
10,0,C1150,Gamma,0.9999999999999998,2595,1,12142,typicality2
11,0,B950, Beta,0.9999999999999998,1188,1,12142,typicality2
12,0,B650,Beta,0.9999999999999998,954,1,12142,typicality2
13,0,C1050,Gamma,0.9999999999999998,667,1,12142,typicality2
14,0,C1250,Gamma,0.9999999999999998,499,1,12142,typicality2
0,0,B550,Beta,3.0,3718,1,12145,typicality2
1,0,B750,Beta,0.9999999999999998,10369,1,12145,typicality2
2,0,C1450,Gamma,6.0,7830,1,12145,typicality2
3,0,C1350,Gamma,5.0,5428,1,12145,typicality2
4,0,A250,Alpha,5.0,6403,1,12145,typicality2
5,0,C1150,Gamma,5.0,3081,1,12145,typicality2
6,0,C1050,Gamma,5.0,1760,1,12145,typicality2
7,0,C1250,Gamma,5.0,1634,1,12145,typicality2
8,0,A50,Alpha,3.0,3786,1,12145,typicality2
9,0,A150,Alpha,3.0,14041,1,12145,typicality2
10,0,B850,Beta,2.0,8347,1,12145,typicality2
11,0,A450,Alpha,2.0,4853,1,12145,typicality2
12,0,B950, Beta,4.0,2604,1,12145,typicality2
13,0,A350,Alpha,3.0,3309,1,12145,typicality2
14,0,B650,Beta,4.0,5508,1,12145,typicality2
0,0,C1350,Gamma,0.0,6613,1,12133,typicality2
1,0,B850,Beta,5.0,6338,1,12133,typicality2
2,0,C1150,Gamma,5.0,5438,1,12133,typicality2
3,0,C1050,Gamma,5.0,1234,1,12133,typicality2
4,0,B550,Beta,4.0,6391,1,12133,typicality2
5,0,A450,Alpha,0.0,4273,1,12133,typicality2
6,0,C1250,Gamma,5.0,4229,1,12133,typicality2
7,0,B650,Beta,2.0,3836,1,12133,typicality2
8,0,B750,Beta,2.0,2110,1,12133,typicality2
9,0,C1450,Gamma,6.0,6871,1,12133,typicality2
10,0,A150,Alpha,6.0,3022,1,12133,typicality2
11,0,B950, Beta,2.0,34148,1,12133,typicality2
12,0,A50,Alpha,6.0,2661,1,12133,typicality2
13,0,A250,Alpha,6.0,1969,1,12133,typicality2
14,0,A350,Alpha,6.0,1331,1,12133,typicality2
0,0,B750,Beta,5.0,20128,1,12162,typicality2
1,0,C1150,Gamma,5.0,7766,1,12162,typicality2
2,0,B850,Beta,5.0,5151,1,12162,typicality2
3,0,B550,Beta,6.0,4157,1,12162,typicality2
4,0,B950, Beta,3.0,13586,1,12162,typicality2
5,0,A150,Alpha,6.0,6188,1,12162,typicality2
6,0,A50,Alpha,6.0,3478,1,12162,typicality2
7,0,C1050,Gamma,6.0,7645,1,12162,typicality2
8,0,B650,Beta,6.0,4840,1,12162,typicality2
9,0,C1350,Gamma,6.0,1976,1,12162,typicality2
10,0,C1250,Gamma,6.0,1306,1,12162,typicality2
11,0,A450,Alpha,6.0,2718,1,12162,typicality2
12,0,A250,Alpha,6.0,3040,1,12162,typicality2
13,0,C1450,Gamma,6.0,7348,1,12162,typicality2
14,0,A350,Alpha,6.0,1628,1,12162,typicality2
0,0,A350,Alpha,0.0,8480,1,12184,typicality2
1,0,B850,Beta,2.0,12980,1,12184,typicality2
2,0,C1350,Gamma,6.0,4907,1,12184,typicality2
3,0,A150,Alpha,0.0,2890,1,12184,typicality2
4,0,B950, Beta,0.9999999999999998,5474,1,12184,typicality2
5,0,B550,Beta,4.0,9023,1,12184,typicality2
6,0,C1150,Gamma,4.0,11944,1,12184,typicality2
7,0,C1050,Gamma,4.0,20992,1,12184,typicality2
8,0,A450,Alpha,3.0,7233,1,12184,typicality2
9,0,C1450,Gamma,6.0,15919,1,12184,typicality2
10,0,A50,Alpha,2.0,4214,1,12184,typicality2
11,0,A250,Alpha,5.0,8483,1,12184,typicality2
12,0,B650,Beta,3.0,6316,1,12184,typicality2
13,0,C1250,Gamma,6.0,3294,1,12184,typicality2
14,0,B750,Beta,3.0,2807,1,12184,typicality2
0,0,A450,Alpha,5.0,24332,1,12187,typicality2
1,0,A250,Alpha,5.0,2235,1,12187,typicality2
2,0,B850,Beta,3.0,7394,1,12187,typicality2
3,0,C1350,Gamma,6.0,4587,1,12187,typicality2
4,0,B550,Beta,6.0,2698,1,12187,typicality2
5,0,C1450,Gamma,6.0,1819,1,12187,typicality2
6,0,B650,Beta,6.0,3113,1,12187,typicality2
7,0,C1050,Gamma,6.0,2390,1,12187,typicality2
8,0,A50,Alpha,6.0,4603,1,12187,typicality2
9,0,B750,Beta,6.0,6280,1,12187,typicality2
10,0,B950, Beta,6.0,4491,1,12187,typicality2
11,0,A150,Alpha,6.0,2685,1,12187,typicality2
12,0,A350,Alpha,6.0,2052,1,12187,typicality2
13,0,C1150,Gamma,6.0,2213,1,12187,typicality2
14,0,C1250,Gamma,6.0,1092,1,12187,typicality2
0,0,B850,Beta,0.9999999999999998,10587,1,12190,typicality2
1,0,B550,Beta,6.0,5114,1,12190,typicality2
2,0,A350,Alpha,6.0,1209,1,12190,typicality2
3,0,C1150,Gamma,6.0,2618,1,12190,typicality2
4,0,A450,Alpha,6.0,8855,1,12190,typicality2
5,0,A250,Alpha,4.0,4331,1,12190,typicality2
6,0,A50,Alpha,6.0,2985,1,12190,typicality2
7,0,B950, Beta,0.0,3436,1,12190,typicality2
8,0,C1050,Gamma,6.0,3640,1,12190,typicality2
9,0,B750,Beta,4.0,3956,1,12190,typicality2
10,0,B650,Beta,2.0,6714,1,12190,typicality2
11,0,C1250,Gamma,6.0,2937,1,12190,typicality2
12,0,A150,Alpha,6.0,1933,1,12190,typicality2
13,0,C1350,Gamma,6.0,5619,1,12190,typicality2
14,0,C1450,Gamma,6.0,1323,1,12190,typicality2
0,0,C1050,Gamma,6.0,9313,1,12193,typicality2
1,0,B850,Beta,4.0,14107,1,12193,typicality2
2,0,A250,Alpha,6.0,4046,1,12193,typicality2
3,0,B650,Beta,6.0,3758,1,12193,typicality2
4,0,C1350,Gamma,6.0,2126,1,12193,typicality2
5,0,C1250,Gamma,6.0,2176,1,12193,typicality2
6,0,A50,Alpha,6.0,2544,1,12193,typicality2
7,0,A150,Alpha,6.0,2402,1,12193,typicality2
8,0,C1450,Gamma,6.0,1867,1,12193,typicality2
9,0,C1150,Gamma,6.0,2181,1,12193,typicality2
10,0,B950, Beta,0.9999999999999998,11228,1,12193,typicality2
11,0,A350,Alpha,6.0,4154,1,12193,typicality2
12,0,B750,Beta,6.0,3024,1,12193,typicality2
13,0,A450,Alpha,3.0,5636,1,12193,typicality2
14,0,B550,Beta,6.0,4304,1,12193,typicality2
0,0,B750,Beta,5.0,11030,1,12196,typicality2
1,0,A50,Alpha,4.0,8190,1,12196,typicality2
2,0,B650,Beta,4.0,4836,1,12196,typicality2
3,0,B850,Beta,0.9999999999999998,5577,1,12196,typicality2
4,0,B550,Beta,0.9999999999999998,2926,1,12196,typicality2
5,0,C1450,Gamma,6.0,6495,1,12196,typicality2
6,0,A350,Alpha,4.0,3426,1,12196,typicality2
7,0,C1250,Gamma,6.0,2912,1,12196,typicality2
8,0,C1150,Gamma,6.0,1892,1,12196,typicality2
9,0,A250,Alpha,2.0,3581,1,12196,typicality2
10,0,C1050,Gamma,5.0,2964,1,12196,typicality2
11,0,A150,Alpha,3.0,2538,1,12196,typicality2
12,0,C1350,Gamma,6.0,1800,1,12196,typicality2
13,0,B950, Beta,0.0,3324,1,12196,typicality2
14,0,A450,Alpha,3.0,5182,1,12196,typicality2
0,0,A450,Alpha,2.0,10721,1,12199,typicality2
1,0,B850,Beta,5.0,5264,1,12199,typicality2
2,0,A250,Alpha,6.0,7898,1,12199,typicality2
3,0,A350,Alpha,4.0,4015,1,12199,typicality2
4,0,C1050,Gamma,5.0,3331,1,12199,typicality2
5,0,B750,Beta,6.0,3267,1,12199,typicality2
6,0,B550,Beta,5.0,5236,1,12199,typicality2
7,0,C1350,Gamma,6.0,3222,1,12199,typicality2
8,0,A50,Alpha,5.0,4218,1,12199,typicality2
9,0,C1250,Gamma,6.0,4252,1,12199,typicality2
10,0,B950, Beta,3.0,6407,1,12199,typicality2
11,0,B650,Beta,5.0,3097,1,12199,typicality2
12,0,A150,Alpha,5.0,2621,1,12199,typicality2
13,0,C1150,Gamma,6.0,2763,1,12199,typicality2
14,0,C1450,Gamma,6.0,1475,1,12199,typicality2
0,0,B750,Beta,6.0,4845,1,11296,typicality2
1,0,A150,Alpha,6.0,2651,1,11296,typicality2
2,0,B550,Beta,6.0,2228,1,11296,typicality2
3,0,C1150,Gamma,6.0,4475,1,11296,typicality2
4,0,B950, Beta,0.0,3053,1,11296,typicality2
5,0,A350,Alpha,4.0,4834,1,11296,typicality2
6,0,C1350,Gamma,6.0,2059,1,11296,typicality2
7,0,A50,Alpha,6.0,1482,1,11296,typicality2
8,0,C1250,Gamma,6.0,1332,1,11296,typicality2
9,0,A250,Alpha,6.0,1157,1,11296,typicality2
10,0,B850,Beta,4.0,3347,1,11296,typicality2
11,0,C1450,Gamma,6.0,1573,1,11296,typicality2
12,0,A450,Alpha,6.0,1179,1,11296,typicality2
13,0,B650,Beta,6.0,1429,1,11296,typicality2
14,0,C1050,Gamma,6.0,1323,1,11296,typicality2
0,0,C1250,Gamma,5.0,10523,1,12202,typicality2
1,0,B750,Beta,6.0,5435,1,12202,typicality2
2,0,C1350,Gamma,5.0,4167,1,12202,typicality2
3,0,B950, Beta,4.0,1932,1,12202,typicality2
4,0,C1050,Gamma,5.0,6232,1,12202,typicality2
5,0,A250,Alpha,3.0,13252,1,12202,typicality2
6,0,A350,Alpha,4.0,4283,1,12202,typicality2
7,0,C1450,Gamma,6.0,3169,1,12202,typicality2
8,0,B650,Beta,6.0,8984,1,12202,typicality2
9,0,B550,Beta,4.0,6614,1,12202,typicality2
10,0,A50,Alpha,6.0,3483,1,12202,typicality2
11,0,C1150,Gamma,6.0,2106,1,12202,typicality2
12,0,B850,Beta,0.0,4959,1,12202,typicality2
13,0,A450,Alpha,0.0,3620,1,12202,typicality2
14,0,A150,Alpha,0.9999999999999998,3734,1,12202,typicality2
0,0,B650,Beta,6.0,6743,1,12218,typicality2
1,0,B850,Beta,4.0,4962,1,12218,typicality2
2,0,B550,Beta,5.0,5339,1,12218,typicality2
3,0,A150,Alpha,0.0,5802,1,12218,typicality2
4,0,C1450,Gamma,6.0,2331,1,12218,typicality2
5,0,A450,Alpha,3.0,2685,1,12218,typicality2
6,0,A50,Alpha,0.0,3415,1,12218,typicality2
7,0,C1250,Gamma,5.0,3276,1,12218,typicality2
8,0,A350,Alpha,2.0,4925,1,12218,typicality2
9,0,B750,Beta,2.0,5076,1,12218,typicality2
10,0,C1150,Gamma,6.0,8390,1,12218,typicality2
11,0,B950, Beta,3.0,4988,1,12218,typicality2
12,0,A250,Alpha,0.9999999999999998,3552,1,12218,typicality2
13,0,C1350,Gamma,6.0,4109,1,12218,typicality2
14,0,C1050,Gamma,4.0,5355,1,12218,typicality2
0,0,C1250,Gamma,5.0,5824,1,12221,typicality2
1,0,B550,Beta,6.0,2703,1,12221,typicality2
2,0,A250,Alpha,4.0,12444,1,12221,typicality2
3,0,A50,Alpha,0.9999999999999998,3896,1,12221,typicality2
4,0,C1150,Gamma,6.0,8860,1,12221,typicality2
5,0,C1450,Gamma,6.0,1564,1,12221,typicality2
6,0,B950, Beta,2.0,4293,1,12221,typicality2
7,0,B850,Beta,3.0,4460,1,12221,typicality2
8,0,A150,Alpha,3.0,6468,1,12221,typicality2
9,0,A450,Alpha,4.0,4684,1,12221,typicality2
10,0,A350,Alpha,4.0,3060,1,12221,typicality2
11,0,C1350,Gamma,6.0,4355,1,12221,typicality2
12,0,B650,Beta,6.0,2361,1,12221,typicality2
13,0,C1050,Gamma,4.0,3780,1,12221,typicality2
14,0,B750,Beta,4.0,2177,1,12221,typicality2
0,0,B850,Beta,6.0,10311,1,12136,typicality2
1,0,A150,Alpha,3.0,11394,1,12136,typicality2
2,0,B650,Beta,6.0,14766,1,12136,typicality2
3,0,A350,Alpha,0.9999999999999998,5113,1,12136,typicality2
4,0,B550,Beta,6.0,3972,1,12136,typicality2
5,0,C1450,Gamma,6.0,2021,1,12136,typicality2
6,0,A250,Alpha,3.0,4799,1,12136,typicality2
7,0,A50,Alpha,4.0,3030,1,12136,typicality2
8,0,A450,Alpha,0.0,4084,1,12136,typicality2
9,0,C1350,Gamma,6.0,2788,1,12136,typicality2
10,0,C1150,Gamma,6.0,1549,1,12136,typicality2
11,0,B950, Beta,6.0,5996,1,12136,typicality2
12,0,C1250,Gamma,6.0,1500,1,12136,typicality2
13,0,B750,Beta,6.0,1699,1,12136,typicality2
14,0,C1050,Gamma,6.0,3438,1,12136,typicality2
0,0,C1150,Gamma,6.0,7630,1,12224,typicality2
1,0,B950, Beta,2.0,7988,1,12224,typicality2
2,0,A450,Alpha,6.0,3817,1,12224,typicality2
3,0,B850,Beta,6.0,3096,1,12224,typicality2
4,0,A150,Alpha,6.0,1785,1,12224,typicality2
5,0,B750,Beta,6.0,1744,1,12224,typicality2
6,0,A350,Alpha,4.0,3203,1,12224,typicality2
7,0,C1250,Gamma,6.0,5994,1,12224,typicality2
8,0,C1350,Gamma,6.0,1183,1,12224,typicality2
9,0,A250,Alpha,3.0,2911,1,12224,typicality2
10,0,C1450,Gamma,6.0,3024,1,12224,typicality2
11,0,B650,Beta,6.0,7838,1,12224,typicality2
12,0,B550,Beta,6.0,859,1,12224,typicality2
13,0,C1050,Gamma,3.0,6695,1,12224,typicality2
14,0,A50,Alpha,6.0,3419,1,12224,typicality2
0,0,A250,Alpha,4.0,6152,1,12227,typicality2
1,0,C1050,Gamma,6.0,3724,1,12227,typicality2
2,0,B850,Beta,0.9999999999999998,4264,1,12227,typicality2
3,0,A150,Alpha,4.0,14036,1,12227,typicality2
4,0,C1250,Gamma,6.0,4983,1,12227,typicality2
5,0,C1450,Gamma,6.0,1113,1,12227,typicality2
6,0,B950, Beta,2.0,3173,1,12227,typicality2
7,0,C1150,Gamma,5.0,2381,1,12227,typicality2
8,0,A50,Alpha,3.0,3620,1,12227,typicality2
9,0,B750,Beta,2.0,4913,1,12227,typicality2
10,0,A350,Alpha,3.0,2147,1,12227,typicality2
11,0,B650,Beta,4.0,2973,1,12227,typicality2
12,0,C1350,Gamma,6.0,2028,1,12227,typicality2
13,0,A450,Alpha,2.0,2426,1,12227,typicality2
14,0,B550,Beta,2.0,1347,1,12227,typicality2
0,0,A150,Alpha,3.0,5567,1,12230,typicality2
1,0,A450,Alpha,4.0,5716,1,12230,typicality2
2,0,A350,Alpha,2.0,3796,1,12230,typicality2
3,0,C1250,Gamma,0.9999999999999998,2273,1,12230,typicality2
4,0,A250,Alpha,0.0,5052,1,12230,typicality2
5,0,C1350,Gamma,4.0,2642,1,12230,typicality2
6,0,A50,Alpha,0.0,2524,1,12230,typicality2
7,0,C1150,Gamma,6.0,3657,1,12230,typicality2
8,0,B750,Beta,6.0,1826,1,12230,typicality2
9,0,B850,Beta,6.0,1499,1,12230,typicality2
10,0,C1450,Gamma,0.9999999999999998,2284,1,12230,typicality2
11,0,B550,Beta,6.0,2292,1,12230,typicality2
12,0,B950, Beta,6.0,1092,1,12230,typicality2
13,0,C1050,Gamma,6.0,1132,1,12230,typicality2
14,0,B650,Beta,5.0,1669,1,12230,typicality2
0,0,C1350,Gamma,0.0,6613,1,12133,typicality2
1,0,B850,Beta,5.0,6338,1,12133,typicality2
2,0,C1150,Gamma,5.0,5438,1,12133,typicality2
3,0,C1050,Gamma,5.0,1234,1,12133,typicality2
4,0,B550,Beta,4.0,6391,1,12133,typicality2
5,0,A450,Alpha,0.0,4273,1,12133,typicality2
6,0,C1250,Gamma,5.0,4229,1,12133,typicality2
7,0,B650,Beta,2.0,3836,1,12133,typicality2
8,0,B750,Beta,2.0,2110,1,12133,typicality2
9,0,C1450,Gamma,6.0,6871,1,12133,typicality2
10,0,A150,Alpha,6.0,3022,1,12133,typicality2
11,0,B950, Beta,2.0,34148,1,12133,typicality2
12,0,A50,Alpha,6.0,2661,1,12133,typicality2
13,0,A250,Alpha,6.0,1969,1,12133,typicality2
14,0,A350,Alpha,6.0,1331,1,12133,typicality2
0,0,B750,Beta,4.0,13066,1,12252,typicality2
1,0,B650,Beta,3.0,3312,1,12252,typicality2
2,0,A350,Alpha,2.0,3648,1,12252,typicality2
3,0,C1450,Gamma,6.0,4403,1,12252,typicality2
4,0,C1250,Gamma,5.0,3363,1,12252,typicality2
5,0,C1150,Gamma,5.0,1897,1,12252,typicality2
6,0,C1050,Gamma,4.0,2812,1,12252,typicality2
7,0,B950, Beta,4.0,5435,1,12252,typicality2
8,0,A50,Alpha,6.0,20113,1,12252,typicality2
9,0,B850,Beta,2.0,13261,1,12252,typicality2
10,0,B550,Beta,5.0,4343,1,12252,typicality2
11,0,C1350,Gamma,6.0,2963,1,12252,typicality2
12,0,A150,Alpha,5.0,9520,1,12252,typicality2
13,0,A250,Alpha,4.0,1915,1,12252,typicality2
14,0,A450,Alpha,3.0,2011,1,12252,typicality2
0,0,C1350,Gamma,5.0,6743,1,12255,typicality2
1,0,B950, Beta,0.9999999999999998,13169,1,12255,typicality2
2,0,A450,Alpha,0.9999999999999998,6331,1,12255,typicality2
3,0,B750,Beta,5.0,6674,1,12255,typicality2
4,0,C1150,Gamma,6.0,4457,1,12255,typicality2
5,0,B850,Beta,4.0,3939,1,12255,typicality2
6,0,C1450,Gamma,6.0,2316,1,12255,typicality2
7,0,A50,Alpha,0.0,3607,1,12255,typicality2
8,0,C1250,Gamma,5.0,6627,1,12255,typicality2
9,0,A150,Alpha,0.0,6043,1,12255,typicality2
10,0,A350,Alpha,2.0,3759,1,12255,typicality2
11,0,B550,Beta,6.0,6419,1,12255,typicality2
12,0,C1050,Gamma,5.0,3758,1,12255,typicality2
13,0,B650,Beta,4.0,5470,1,12255,typicality2
14,0,A250,Alpha,2.0,4828,1,12255,typicality2
0,0,B650,Beta,6.0,4812,1,12258,typicality2
1,0,C1250,Gamma,6.0,4691,1,12258,typicality2
2,0,B550,Beta,6.0,2566,1,12258,typicality2
3,0,C1050,Gamma,6.0,3236,1,12258,typicality2
4,0,C1150,Gamma,6.0,1825,1,12258,typicality2
5,0,C1350,Gamma,6.0,1519,1,12258,typicality2
6,0,A250,Alpha,2.0,10570,1,12258,typicality2
7,0,B850,Beta,6.0,2895,1,12258,typicality2
8,0,B750,Beta,6.0,1082,1,12258,typicality2
9,0,A350,Alpha,4.0,5854,1,12258,typicality2
10,0,A450,Alpha,4.0,964,1,12258,typicality2
11,0,B950, Beta,0.9999999999999998,6472,1,12258,typicality2
12,0,A150,Alpha,5.0,4635,1,12258,typicality2
13,0,C1450,Gamma,6.0,2588,1,12258,typicality2
14,0,A50,Alpha,5.0,3544,1,12258,typicality2
0,0,B850,Beta,0.9999999999999998,11322,1,12275,typicality2
1,0,B650,Beta,6.0,2840,1,12275,typicality2
2,0,A150,Alpha,6.0,15676,1,12275,typicality2
3,0,C1050,Gamma,6.0,3028,1,12275,typicality2
4,0,C1450,Gamma,6.0,1843,1,12275,typicality2
5,0,B550,Beta,6.0,4206,1,12275,typicality2
6,0,A450,Alpha,5.0,6076,1,12275,typicality2
7,0,A50,Alpha,5.0,4528,1,12275,typicality2
8,0,C1250,Gamma,6.0,2588,1,12275,typicality2
9,0,B950, Beta,0.0,4268,1,12275,typicality2
10,0,C1350,Gamma,6.0,3252,1,12275,typicality2
11,0,A250,Alpha,3.0,3692,1,12275,typicality2
12,0,C1150,Gamma,6.0,2115,1,12275,typicality2
13,0,B750,Beta,0.9999999999999998,7411,1,12275,typicality2
14,0,A350,Alpha,4.0,4438,1,12275,typicality2
0,0,B750,Beta,6.0,4672,1,12278,typicality2
1,0,C1150,Gamma,6.0,2481,1,12278,typicality2
2,0,B550,Beta,6.0,3419,1,12278,typicality2
3,0,C1050,Gamma,6.0,1521,1,12278,typicality2
4,0,C1450,Gamma,6.0,898,1,12278,typicality2
5,0,C1350,Gamma,6.0,1076,1,12278,typicality2
6,0,A150,Alpha,6.0,8254,1,12278,typicality2
7,0,A450,Alpha,3.0,8256,1,12278,typicality2
8,0,B850,Beta,6.0,2935,1,12278,typicality2
9,0,B650,Beta,6.0,1744,1,12278,typicality2
10,0,A350,Alpha,6.0,2666,1,12278,typicality2
11,0,B950, Beta,0.0,3677,1,12278,typicality2
12,0,A250,Alpha,6.0,3215,1,12278,typicality2
13,0,C1250,Gamma,6.0,1527,1,12278,typicality2
14,0,A50,Alpha,6.0,2247,1,12278,typicality2
0,0,A50,Alpha,3.0,7594,1,12283,typicality2
1,0,C1350,Gamma,5.0,8524,1,12283,typicality2
2,0,C1250,Gamma,5.0,3394,1,12283,typicality2
3,0,A350,Alpha,4.0,6573,1,12283,typicality2
4,0,A250,Alpha,4.0,2676,1,12283,typicality2
5,0,C1150,Gamma,2.0,9395,1,12283,typicality2
6,0,B850,Beta,6.0,4251,1,12283,typicality2
7,0,B950, Beta,6.0,2662,1,12283,typicality2
8,0,B650,Beta,5.0,3467,1,12283,typicality2
9,0,A450,Alpha,2.0,4604,1,12283,typicality2
10,0,A150,Alpha,5.0,6884,1,12283,typicality2
11,0,C1050,Gamma,3.0,8076,1,12283,typicality2
12,0,B750,Beta,5.0,5243,1,12283,typicality2
13,0,C1450,Gamma,6.0,2612,1,12283,typicality2
14,0,B550,Beta,4.0,4931,1,12283,typicality2
0,0,A50,Alpha,6.0,6979,1,12286,typicality2
1,0,B550,Beta,6.0,3659,1,12286,typicality2
2,0,A450,Alpha,6.0,2247,1,12286,typicality2
3,0,C1150,Gamma,6.0,3764,1,12286,typicality2
4,0,B950, Beta,0.0,8299,1,12286,typicality2
5,0,A350,Alpha,6.0,7014,1,12286,typicality2
6,0,C1450,Gamma,6.0,1803,1,12286,typicality2
7,0,A150,Alpha,6.0,1791,1,12286,typicality2
8,0,C1350,Gamma,6.0,1847,1,12286,typicality2
9,0,A250,Alpha,6.0,1772,1,12286,typicality2
10,0,B750,Beta,3.0,5460,1,12286,typicality2
11,0,C1250,Gamma,6.0,2733,1,12286,typicality2
12,0,C1050,Gamma,6.0,2611,1,12286,typicality2
13,0,B850,Beta,2.0,7227,1,12286,typicality2
14,0,B650,Beta,4.0,6189,1,12286,typicality2
0,0,A50,Alpha,6.0,6555,1,12289,typicality2
1,0,C1350,Gamma,6.0,2796,1,12289,typicality2
2,0,B850,Beta,6.0,5867,1,12289,typicality2
3,0,A450,Alpha,2.0,8379,1,12289,typicality2
4,0,C1450,Gamma,6.0,4776,1,12289,typicality2
5,0,B650,Beta,6.0,4328,1,12289,typicality2
6,0,B550,Beta,6.0,1840,1,12289,typicality2
7,0,C1150,Gamma,6.0,2445,1,12289,typicality2
8,0,B950, Beta,0.0,4843,1,12289,typicality2
9,0,B750,Beta,4.0,5080,1,12289,typicality2
10,0,A150,Alpha,5.0,5602,1,12289,typicality2
11,0,A250,Alpha,5.0,2081,1,12289,typicality2
12,0,C1250,Gamma,6.0,2908,1,12289,typicality2
13,0,C1050,Gamma,6.0,1095,1,12289,typicality2
14,0,A350,Alpha,2.0,4442,1,12289,typicality2
0,0,C1350,Gamma,6.0,6540,1,12298,typicality2
1,0,B750,Beta,5.0,8497,1,12298,typicality2
2,0,A150,Alpha,5.0,8843,1,12298,typicality2
3,0,A450,Alpha,4.0,14965,1,12298,typicality2
4,0,C1450,Gamma,6.0,2779,1,12298,typicality2
5,0,A350,Alpha,6.0,7437,1,12298,typicality2
6,0,A250,Alpha,6.0,1556,1,12298,typicality2
7,0,A50,Alpha,3.0,7892,1,12298,typicality2
8,0,C1250,Gamma,6.0,2340,1,12298,typicality2
9,0,C1150,Gamma,5.0,2118,1,12298,typicality2
10,0,B950, Beta,0.0,10426,1,12298,typicality2
11,0,B650,Beta,4.0,7021,1,12298,typicality2
12,0,B550,Beta,4.0,1452,1,12298,typicality2
13,0,C1050,Gamma,6.0,2028,1,12298,typicality2
14,0,B850,Beta,0.0,4443,1,12298,typicality2
0,0,B850,Beta,6.0,10311,1,12136,typicality2
1,0,A150,Alpha,3.0,11394,1,12136,typicality2
2,0,B650,Beta,6.0,14766,1,12136,typicality2
3,0,A350,Alpha,0.9999999999999998,5113,1,12136,typicality2
4,0,B550,Beta,6.0,3972,1,12136,typicality2
5,0,C1450,Gamma,6.0,2021,1,12136,typicality2
6,0,A250,Alpha,3.0,4799,1,12136,typicality2
7,0,A50,Alpha,4.0,3030,1,12136,typicality2
8,0,A450,Alpha,0.0,4084,1,12136,typicality2
9,0,C1350,Gamma,6.0,2788,1,12136,typicality2
10,0,C1150,Gamma,6.0,1549,1,12136,typicality2
11,0,B950, Beta,6.0,5996,1,12136,typicality2
12,0,C1250,Gamma,6.0,1500,1,12136,typicality2
13,0,B750,Beta,6.0,1699,1,12136,typicality2
14,0,C1050,Gamma,6.0,3438,1,12136,typicality2
0,0,C1450,Gamma,6.0,4718,1,12313,typicality2
1,0,A250,Alpha,0.9999999999999998,8152,1,12313,typicality2
2,0,C1050,Gamma,6.0,3015,1,12313,typicality2
3,0,B750,Beta,0.9999999999999998,12394,1,12313,typicality2
4,0,A350,Alpha,6.0,7979,1,12313,typicality2
5,0,A450,Alpha,6.0,10821,1,12313,typicality2
6,0,B850,Beta,0.0,4988,1,12313,typicality2
7,0,A150,Alpha,6.0,3458,1,12313,typicality2
8,0,A50,Alpha,6.0,2058,1,12313,typicality2
9,0,B950, Beta,0.0,2451,1,12313,typicality2
10,0,C1250,Gamma,6.0,1892,1,12313,typicality2
11,0,B550,Beta,3.0,4164,1,12313,typicality2
12,0,C1350,Gamma,6.0,1627,1,12313,typicality2
13,0,B650,Beta,6.0,10523,1,12313,typicality2
14,0,C1150,Gamma,6.0,1707,1,12313,typicality2
0,0,C1450,Gamma,6.0,10130,1,12317,typicality2
1,0,B650,Beta,3.0,3907,1,12317,typicality2
2,0,C1250,Gamma,5.0,2587,1,12317,typicality2
3,0,C1350,Gamma,5.0,2255,1,12317,typicality2
4,0,C1050,Gamma,5.0,2141,1,12317,typicality2
5,0,B750,Beta,2.0,3061,1,12317,typicality2
6,0,B950, Beta,2.0,3919,1,12317,typicality2
7,0,C1150,Gamma,5.0,3276,1,12317,typicality2
8,0,A350,Alpha,4.0,8702,1,12317,typicality2
9,0,B550,Beta,3.0,4278,1,12317,typicality2
10,0,A450,Alpha,0.9999999999999998,4777,1,12317,typicality2
11,0,A50,Alpha,4.0,3028,1,12317,typicality2
12,0,A250,Alpha,4.0,2838,1,12317,typicality2
13,0,A150,Alpha,2.0,5116,1,12317,typicality2
14,0,B850,Beta,0.0,4062,1,12317,typicality2
0,0,A50,Alpha,6.0,6642,1,12320,typicality2
1,0,C1050,Gamma,0.0,7418,1,12320,typicality2
2,0,C1350,Gamma,6.0,6183,1,12320,typicality2
3,0,B950, Beta,0.9999999999999998,7146,1,12320,typicality2
4,0,B750,Beta,3.0,4484,1,12320,typicality2
5,0,A350,Alpha,4.0,11503,1,12320,typicality2
6,0,C1250,Gamma,6.0,3266,1,12320,typicality2
7,0,C1150,Gamma,6.0,2529,1,12320,typicality2
8,0,B550,Beta,5.0,6317,1,12320,typicality2
9,0,B850,Beta,2.0,4717,1,12320,typicality2
10,0,B650,Beta,4.0,4407,1,12320,typicality2
11,0,C1450,Gamma,6.0,2269,1,12320,typicality2
12,0,A150,Alpha,5.0,7475,1,12320,typicality2
13,0,A450,Alpha,2.0,6338,1,12320,typicality2
14,0,A250,Alpha,5.0,3171,1,12320,typicality2
