trial,block,stimId,category,response,accuracy,rt,condition,id,phase
0,0,B550,Beta,Beta,True,3746,1,11296,trainPhase
1,0,C1050,Gamma,Gamma,True,1665,1,11296,trainPhase
2,0,C1150,Gamma,Gamma,True,1116,1,11296,trainPhase
3,0,B850,Beta,Beta,True,2239,1,11296,trainPhase
4,0,B950,Beta,Beta,True,2962,1,11296,trainPhase
5,0,C1450,Gamma,Gamma,True,1144,1,11296,trainPhase
6,0,C1250,Gamma,Beta,False,1415,1,11296,trainPhase
7,0,B650,Beta,Beta,True,3078,1,11296,trainPhase
8,0,B750,Beta,Gamma,False,2040,1,11296,trainPhase
9,0,C1350,Gamma,Gamma,True,1013,1,11296,trainPhase
0,1,C1050,Gamma,Beta,False,1319,1,11296,trainPhase
1,1,B650,Beta,Beta,True,1333,1,11296,trainPhase
2,1,B550,Beta,Beta,True,2512,1,11296,trainPhase
3,1,C1350,Gamma,Gamma,True,918,1,11296,trainPhase
4,1,C1250,Gamma,Gamma,True,1390,1,11296,trainPhase
5,1,B750,Beta,Beta,True,845,1,11296,trainPhase
6,1,C1450,Gamma,Gamma,True,905,1,11296,trainPhase
7,1,B950,Beta,Beta,True,868,1,11296,trainPhase
8,1,C1150,Gamma,Gamma,True,4846,1,11296,trainPhase
9,1,B850,Beta,Beta,True,1128,1,11296,trainPhase
0,2,B550,Beta,Beta,True,853,1,11296,trainPhase
1,2,B950,Beta,Beta,True,1590,1,11296,trainPhase
2,2,B650,Beta,Beta,True,733,1,11296,trainPhase
3,2,C1450,Gamma,Gamma,True,800,1,11296,trainPhase
4,2,C1350,Gamma,Gamma,True,1220,1,11296,trainPhase
5,2,C1150,Gamma,Beta,False,1667,1,11296,trainPhase
6,2,C1050,Gamma,Beta,False,918,1,11296,trainPhase
7,2,B750,Beta,Beta,True,1126,1,11296,trainPhase
8,2,B850,Beta,Beta,True,975,1,11296,trainPhase
9,2,C1250,Gamma,Gamma,True,1041,1,11296,trainPhase
0,3,B550,Beta,Beta,True,885,1,11296,trainPhase
1,3,C1050,Gamma,Beta,False,1284,1,11296,trainPhase
2,3,B750,Beta,Beta,True,967,1,11296,trainPhase
3,3,C1450,Gamma,Gamma,True,821,1,11296,trainPhase
4,3,B650,Beta,Beta,True,783,1,11296,trainPhase
5,3,B950,Beta,Beta,True,853,1,11296,trainPhase
6,3,C1350,Gamma,Gamma,True,727,1,11296,trainPhase
7,3,C1250,Gamma,Gamma,True,788,1,11296,trainPhase
8,3,B850,Beta,Beta,True,1931,1,11296,trainPhase
9,3,C1150,Gamma,Gamma,True,1205,1,11296,trainPhase
0,4,C1150,Gamma,Gamma,True,924,1,11296,trainPhase
1,4,B950,Beta,Gamma,False,1262,1,11296,trainPhase
2,4,B650,Beta,Beta,True,742,1,11296,trainPhase
3,4,B750,Beta,Beta,True,883,1,11296,trainPhase
4,4,C1350,Gamma,Gamma,True,1089,1,11296,trainPhase
5,4,B550,Beta,Beta,True,2281,1,11296,trainPhase
6,4,C1050,Gamma,Beta,False,2856,1,11296,trainPhase
7,4,C1450,Gamma,Gamma,True,582,1,11296,trainPhase
8,4,B850,Beta,Beta,True,5268,1,11296,trainPhase
9,4,C1250,Gamma,Gamma,True,651,1,11296,trainPhase
0,0,B550,Beta,Beta,True,6019,1,12139,trainPhase
1,0,B750,Beta,Gamma,False,2193,1,12139,trainPhase
2,0,B650,Beta,Beta,True,1351,1,12139,trainPhase
3,0,C1350,Gamma,Beta,False,1525,1,12139,trainPhase
4,0,C1450,Gamma,Gamma,True,1090,1,12139,trainPhase
5,0,C1150,Gamma,Gamma,True,2798,1,12139,trainPhase
6,0,B950,Beta,Beta,True,1341,1,12139,trainPhase
7,0,B850,Beta,Beta,True,1053,1,12139,trainPhase
8,0,C1250,Gamma,Gamma,True,1142,1,12139,trainPhase
9,0,C1050,Gamma,Beta,False,1361,1,12139,trainPhase
0,1,C1250,Gamma,Gamma,True,1037,1,12139,trainPhase
1,1,B750,Beta,Beta,True,1129,1,12139,trainPhase
2,1,C1050,Gamma,Beta,False,1445,1,12139,trainPhase
3,1,C1150,Gamma,Gamma,True,2517,1,12139,trainPhase
4,1,B550,Beta,Beta,True,1357,1,12139,trainPhase
5,1,B850,Beta,Beta,True,1328,1,12139,trainPhase
6,1,C1350,Gamma,Gamma,True,871,1,12139,trainPhase
7,1,B650,Beta,Beta,True,1039,1,12139,trainPhase
8,1,B950,Beta,Gamma,False,1518,1,12139,trainPhase
9,1,C1450,Gamma,Gamma,True,1076,1,12139,trainPhase
0,2,C1250,Gamma,Beta,False,990,1,12139,trainPhase
1,2,C1150,Gamma,Gamma,True,1109,1,12139,trainPhase
2,2,B850,Beta,Gamma,False,1599,1,12139,trainPhase
3,2,B750,Beta,Beta,True,1047,1,12139,trainPhase
4,2,C1450,Gamma,Gamma,True,1247,1,12139,trainPhase
5,2,C1050,Gamma,Gamma,True,1322,1,12139,trainPhase
6,2,B650,Beta,Beta,True,1031,1,12139,trainPhase
7,2,C1350,Gamma,Gamma,True,989,1,12139,trainPhase
8,2,B950,Beta,Gamma,False,2444,1,12139,trainPhase
9,2,B550,Beta,Beta,True,1039,1,12139,trainPhase
0,3,B750,Beta,Beta,True,1425,1,12139,trainPhase
1,3,C1250,Gamma,Gamma,True,943,1,12139,trainPhase
2,3,B950,Beta,Gamma,False,2036,1,12139,trainPhase
3,3,B650,Beta,Beta,True,1598,1,12139,trainPhase
4,3,C1350,Gamma,Gamma,True,984,1,12139,trainPhase
5,3,C1150,Gamma,Gamma,True,3853,1,12139,trainPhase
6,3,B850,Beta,Gamma,False,1279,1,12139,trainPhase
7,3,C1450,Gamma,Gamma,True,900,1,12139,trainPhase
8,3,C1050,Gamma,Gamma,True,1451,1,12139,trainPhase
9,3,B550,Beta,Beta,True,956,1,12139,trainPhase
0,4,B850,Beta,Gamma,False,1351,1,12139,trainPhase
1,4,C1250,Gamma,Gamma,True,1141,1,12139,trainPhase
2,4,C1050,Gamma,Gamma,True,1502,1,12139,trainPhase
3,4,B950,Beta,Gamma,False,1266,1,12139,trainPhase
4,4,B650,Beta,Beta,True,998,1,12139,trainPhase
5,4,C1350,Gamma,Gamma,True,1222,1,12139,trainPhase
6,4,C1150,Gamma,Gamma,True,1129,1,12139,trainPhase
7,4,B750,Beta,Beta,True,1134,1,12139,trainPhase
8,4,C1450,Gamma,Gamma,True,864,1,12139,trainPhase
9,4,B550,Beta,Beta,True,1257,1,12139,trainPhase
0,0,B750,Beta,Gamma,False,5297,1,12142,trainPhase
1,0,C1050,Gamma,Beta,False,2457,1,12142,trainPhase
2,0,C1350,Gamma,Beta,False,1907,1,12142,trainPhase
3,0,B550,Beta,Beta,True,1471,1,12142,trainPhase
4,0,B850,Beta,Gamma,False,1139,1,12142,trainPhase
5,0,B950,Beta,Gamma,False,2260,1,12142,trainPhase
6,0,B650,Beta,Beta,True,1053,1,12142,trainPhase
7,0,C1450,Gamma,Gamma,True,1049,1,12142,trainPhase
8,0,C1150,Gamma,Gamma,True,1421,1,12142,trainPhase
9,0,C1250,Gamma,Gamma,True,1468,1,12142,trainPhase
0,1,B550,Beta,Beta,True,980,1,12142,trainPhase
1,1,C1450,Gamma,Gamma,True,1558,1,12142,trainPhase
2,1,C1050,Gamma,Gamma,True,1380,1,12142,trainPhase
3,1,C1350,Gamma,Gamma,True,958,1,12142,trainPhase
4,1,B950,Beta,Gamma,False,1094,1,12142,trainPhase
5,1,B650,Beta,Beta,True,933,1,12142,trainPhase
6,1,B850,Beta,Beta,True,894,1,12142,trainPhase
7,1,C1150,Gamma,Gamma,True,1092,1,12142,trainPhase
8,1,C1250,Gamma,Gamma,True,1045,1,12142,trainPhase
9,1,B750,Beta,Beta,True,945,1,12142,trainPhase
0,2,C1250,Gamma,Gamma,True,1168,1,12142,trainPhase
1,2,C1050,Gamma,Gamma,True,1070,1,12142,trainPhase
2,2,B750,Beta,Beta,True,1085,1,12142,trainPhase
3,2,C1450,Gamma,Gamma,True,1406,1,12142,trainPhase
4,2,C1350,Gamma,Gamma,True,1229,1,12142,trainPhase
5,2,B950,Beta,Gamma,False,1693,1,12142,trainPhase
6,2,B850,Beta,Beta,True,949,1,12142,trainPhase
7,2,B650,Beta,Beta,True,1048,1,12142,trainPhase
8,2,C1150,Gamma,Gamma,True,1270,1,12142,trainPhase
9,2,B550,Beta,Beta,True,857,1,12142,trainPhase
0,3,C1450,Gamma,Gamma,True,981,1,12142,trainPhase
1,3,C1050,Gamma,Gamma,True,2178,1,12142,trainPhase
2,3,B950,Beta,Gamma,False,806,1,12142,trainPhase
3,3,B750,Beta,Beta,True,805,1,12142,trainPhase
4,3,C1250,Gamma,Gamma,True,870,1,12142,trainPhase
5,3,B850,Beta,Beta,True,861,1,12142,trainPhase
6,3,C1350,Gamma,Gamma,True,781,1,12142,trainPhase
7,3,C1150,Gamma,Gamma,True,886,1,12142,trainPhase
8,3,B650,Beta,Beta,True,982,1,12142,trainPhase
9,3,B550,Beta,Beta,True,662,1,12142,trainPhase
0,4,B750,Beta,Beta,True,733,1,12142,trainPhase
1,4,C1050,Gamma,Gamma,True,965,1,12142,trainPhase
2,4,C1350,Gamma,Gamma,True,846,1,12142,trainPhase
3,4,B650,Beta,Beta,True,1013,1,12142,trainPhase
4,4,C1150,Gamma,Gamma,True,886,1,12142,trainPhase
5,4,C1250,Gamma,Gamma,True,806,1,12142,trainPhase
6,4,B850,Beta,Beta,True,1245,1,12142,trainPhase
7,4,B950,Beta,Beta,True,775,1,12142,trainPhase
8,4,C1450,Gamma,Gamma,True,1031,1,12142,trainPhase
9,4,B550,Beta,Beta,True,1021,1,12142,trainPhase
0,0,C1350,Gamma,Gamma,True,7436,1,12145,trainPhase
1,0,C1150,Gamma,Gamma,True,1853,1,12145,trainPhase
2,0,C1250,Gamma,Gamma,True,1176,1,12145,trainPhase
3,0,B550,Beta,Beta,True,1089,1,12145,trainPhase
4,0,B750,Beta,Beta,True,1481,1,12145,trainPhase
5,0,B950,Beta,Gamma,False,809,1,12145,trainPhase
6,0,B850,Beta,Beta,True,1112,1,12145,trainPhase
7,0,B650,Beta,Beta,True,807,1,12145,trainPhase
8,0,C1050,Gamma,Gamma,True,987,1,12145,trainPhase
9,0,C1450,Gamma,Gamma,True,1132,1,12145,trainPhase
0,1,B750,Beta,Beta,True,1176,1,12145,trainPhase
1,1,B550,Beta,Beta,True,979,1,12145,trainPhase
2,1,B850,Beta,Beta,True,1694,1,12145,trainPhase
3,1,B950,Beta,Gamma,False,825,1,12145,trainPhase
4,1,C1450,Gamma,Gamma,True,1427,1,12145,trainPhase
5,1,C1050,Gamma,Beta,False,1134,1,12145,trainPhase
6,1,C1350,Gamma,Gamma,True,718,1,12145,trainPhase
7,1,C1250,Gamma,Gamma,True,675,1,12145,trainPhase
8,1,C1150,Gamma,Gamma,True,910,1,12145,trainPhase
9,1,B650,Beta,Beta,True,1062,1,12145,trainPhase
0,2,C1250,Gamma,Gamma,True,1006,1,12145,trainPhase
1,2,B550,Beta,Beta,True,739,1,12145,trainPhase
2,2,B850,Beta,Beta,True,934,1,12145,trainPhase
3,2,C1050,Gamma,Gamma,True,2246,1,12145,trainPhase
4,2,B950,Beta,Beta,True,926,1,12145,trainPhase
5,2,C1450,Gamma,Gamma,True,789,1,12145,trainPhase
6,2,B650,Beta,Beta,True,725,1,12145,trainPhase
7,2,B750,Beta,Beta,True,1070,1,12145,trainPhase
8,2,C1150,Gamma,Gamma,True,2012,1,12145,trainPhase
9,2,C1350,Gamma,Gamma,True,901,1,12145,trainPhase
0,3,B850,Beta,Beta,True,925,1,12145,trainPhase
1,3,C1050,Gamma,Gamma,True,2125,1,12145,trainPhase
2,3,B550,Beta,Beta,True,642,1,12145,trainPhase
3,3,C1350,Gamma,Gamma,True,1110,1,12145,trainPhase
4,3,B950,Beta,Beta,True,1461,1,12145,trainPhase
5,3,B650,Beta,Beta,True,1230,1,12145,trainPhase
6,3,C1250,Gamma,Gamma,True,3677,1,12145,trainPhase
7,3,C1450,Gamma,Gamma,True,19401,1,12145,trainPhase
8,3,C1150,Gamma,Gamma,True,4358,1,12145,trainPhase
9,3,B750,Beta,Beta,True,852,1,12145,trainPhase
0,4,C1250,Gamma,Beta,False,845,1,12145,trainPhase
1,4,B950,Beta,Beta,True,1297,1,12145,trainPhase
2,4,C1050,Gamma,Beta,False,856,1,12145,trainPhase
3,4,C1450,Gamma,Gamma,True,1220,1,12145,trainPhase
4,4,B650,Beta,Beta,True,838,1,12145,trainPhase
5,4,C1350,Gamma,Gamma,True,688,1,12145,trainPhase
6,4,B750,Beta,Beta,True,791,1,12145,trainPhase
7,4,B850,Beta,Beta,True,1344,1,12145,trainPhase
8,4,C1150,Gamma,Gamma,True,711,1,12145,trainPhase
9,4,B550,Beta,Beta,True,563,1,12145,trainPhase
0,0,C1150,Gamma,Gamma,True,4769,1,12133,trainPhase
1,0,B750,Beta,Gamma,False,2380,1,12133,trainPhase
2,0,C1250,Gamma,Gamma,True,1387,1,12133,trainPhase
3,0,B850,Beta,Beta,True,956,1,12133,trainPhase
4,0,C1450,Gamma,Gamma,True,1569,1,12133,trainPhase
5,0,B950,Beta,Beta,True,1445,1,12133,trainPhase
6,0,C1350,Gamma,Gamma,True,2448,1,12133,trainPhase
7,0,C1050,Gamma,Beta,False,1743,1,12133,trainPhase
8,0,B550,Beta,Beta,True,2477,1,12133,trainPhase
9,0,B650,Beta,Gamma,False,1283,1,12133,trainPhase
0,1,B650,Beta,Beta,True,1455,1,12133,trainPhase
1,1,C1350,Gamma,Beta,False,1175,1,12133,trainPhase
2,1,C1150,Gamma,Gamma,True,1967,1,12133,trainPhase
3,1,B950,Beta,Gamma,False,2964,1,12133,trainPhase
4,1,C1250,Gamma,Gamma,True,1406,1,12133,trainPhase
5,1,B550,Beta,Beta,True,881,1,12133,trainPhase
6,1,C1050,Gamma,Gamma,True,1689,1,12133,trainPhase
7,1,B850,Beta,Gamma,False,1765,1,12133,trainPhase
8,1,C1450,Gamma,Gamma,True,1109,1,12133,trainPhase
9,1,B750,Beta,Beta,True,1247,1,12133,trainPhase
0,2,B950,Beta,Gamma,False,1655,1,12133,trainPhase
1,2,C1150,Gamma,Gamma,True,1478,1,12133,trainPhase
2,2,B550,Beta,Gamma,False,1295,1,12133,trainPhase
3,2,B850,Beta,Beta,True,787,1,12133,trainPhase
4,2,C1050,Gamma,Beta,False,1203,1,12133,trainPhase
5,2,C1250,Gamma,Gamma,True,940,1,12133,trainPhase
6,2,B750,Beta,Beta,True,1045,1,12133,trainPhase
7,2,C1450,Gamma,Gamma,True,1020,1,12133,trainPhase
8,2,C1350,Gamma,Gamma,True,894,1,12133,trainPhase
9,2,B650,Beta,Beta,True,853,1,12133,trainPhase
0,3,B850,Beta,Beta,True,1162,1,12133,trainPhase
1,3,B950,Beta,Gamma,False,1045,1,12133,trainPhase
2,3,C1350,Gamma,Gamma,True,925,1,12133,trainPhase
3,3,B650,Beta,Beta,True,1229,1,12133,trainPhase
4,3,C1150,Gamma,Beta,False,1380,1,12133,trainPhase
5,3,C1450,Gamma,Beta,False,1837,1,12133,trainPhase
6,3,C1050,Gamma,Gamma,True,941,1,12133,trainPhase
7,3,C1250,Gamma,Gamma,True,925,1,12133,trainPhase
8,3,B750,Beta,Beta,True,653,1,12133,trainPhase
9,3,B550,Beta,Beta,True,1359,1,12133,trainPhase
0,4,B650,Beta,Gamma,False,925,1,12133,trainPhase
1,4,C1150,Gamma,Gamma,True,1452,1,12133,trainPhase
2,4,C1450,Gamma,Gamma,True,1207,1,12133,trainPhase
3,4,B950,Beta,Beta,True,1485,1,12133,trainPhase
4,4,C1250,Gamma,Gamma,True,2318,1,12133,trainPhase
5,4,C1350,Gamma,Beta,False,1229,1,12133,trainPhase
6,4,B750,Beta,Gamma,False,803,1,12133,trainPhase
7,4,B550,Beta,Gamma,False,686,1,12133,trainPhase
8,4,B850,Beta,Gamma,False,668,1,12133,trainPhase
9,4,C1050,Gamma,Beta,False,622,1,12133,trainPhase
0,0,C1450,Gamma,Gamma,True,6623,1,12162,trainPhase
1,0,C1050,Gamma,Gamma,True,2402,1,12162,trainPhase
2,0,B850,Beta,Gamma,False,845,1,12162,trainPhase
3,0,B750,Beta,Beta,True,1307,1,12162,trainPhase
4,0,C1350,Gamma,Gamma,True,2119,1,12162,trainPhase
5,0,B550,Beta,Beta,True,2178,1,12162,trainPhase
6,0,B950,Beta,Gamma,False,1208,1,12162,trainPhase
7,0,C1250,Gamma,Gamma,True,1781,1,12162,trainPhase
8,0,B650,Beta,Beta,True,1332,1,12162,trainPhase
9,0,C1150,Gamma,Gamma,True,1704,1,12162,trainPhase
0,1,B850,Beta,Beta,True,1166,1,12162,trainPhase
1,1,B750,Beta,Beta,True,2045,1,12162,trainPhase
2,1,B650,Beta,Beta,True,1917,1,12162,trainPhase
3,1,C1250,Gamma,Gamma,True,941,1,12162,trainPhase
4,1,C1450,Gamma,Gamma,True,1136,1,12162,trainPhase
5,1,B550,Beta,Beta,True,1058,1,12162,trainPhase
6,1,C1150,Gamma,Gamma,True,2270,1,12162,trainPhase
7,1,C1350,Gamma,Gamma,True,1151,1,12162,trainPhase
8,1,C1050,Gamma,Gamma,True,2086,1,12162,trainPhase
9,1,B950,Beta,Beta,True,749,1,12162,trainPhase
0,2,B750,Beta,Beta,True,983,1,12162,trainPhase
1,2,B550,Beta,Beta,True,794,1,12162,trainPhase
2,2,C1350,Gamma,Gamma,True,1325,1,12162,trainPhase
3,2,B850,Beta,Beta,True,2245,1,12162,trainPhase
4,2,C1250,Gamma,Gamma,True,1159,1,12162,trainPhase
5,2,C1450,Gamma,Gamma,True,805,1,12162,trainPhase
6,2,C1150,Gamma,Gamma,True,1053,1,12162,trainPhase
7,2,B650,Beta,Beta,True,763,1,12162,trainPhase
8,2,B950,Beta,Beta,True,1049,1,12162,trainPhase
9,2,C1050,Gamma,Gamma,True,1197,1,12162,trainPhase
0,3,B950,Beta,Beta,True,1227,1,12162,trainPhase
1,3,C1150,Gamma,Gamma,True,838,1,12162,trainPhase
2,3,B650,Beta,Beta,True,949,1,12162,trainPhase
3,3,C1050,Gamma,Gamma,True,3702,1,12162,trainPhase
4,3,B750,Beta,Beta,True,990,1,12162,trainPhase
5,3,B550,Beta,Beta,True,886,1,12162,trainPhase
6,3,C1450,Gamma,Gamma,True,911,1,12162,trainPhase
7,3,C1350,Gamma,Gamma,True,838,1,12162,trainPhase
8,3,C1250,Gamma,Gamma,True,541,1,12162,trainPhase
9,3,B850,Beta,Beta,True,1389,1,12162,trainPhase
0,4,B650,Beta,Beta,True,1824,1,12162,trainPhase
1,4,C1450,Gamma,Gamma,True,789,1,12162,trainPhase
2,4,C1050,Gamma,Gamma,True,2574,1,12162,trainPhase
3,4,B850,Beta,Beta,True,2111,1,12162,trainPhase
4,4,B550,Beta,Beta,True,893,1,12162,trainPhase
5,4,B950,Beta,Beta,True,5470,1,12162,trainPhase
6,4,C1250,Gamma,Gamma,True,968,1,12162,trainPhase
7,4,B750,Beta,Beta,True,1393,1,12162,trainPhase
8,4,C1150,Gamma,Gamma,True,1614,1,12162,trainPhase
9,4,C1350,Gamma,Gamma,True,1000,1,12162,trainPhase
0,0,C1150,Gamma,Beta,False,10931,1,12184,trainPhase
1,0,B550,Beta,Beta,True,2726,1,12184,trainPhase
2,0,C1250,Gamma,Gamma,True,814,1,12184,trainPhase
3,0,C1450,Gamma,Gamma,True,1017,1,12184,trainPhase
4,0,C1350,Gamma,Gamma,True,889,1,12184,trainPhase
5,0,B950,Beta,Gamma,False,780,1,12184,trainPhase
6,0,C1050,Gamma,Gamma,True,1319,1,12184,trainPhase
7,0,B650,Beta,Beta,True,971,1,12184,trainPhase
8,0,B850,Beta,Gamma,False,1970,1,12184,trainPhase
9,0,B750,Beta,Beta,True,2316,1,12184,trainPhase
0,1,B550,Beta,Beta,True,1062,1,12184,trainPhase
1,1,B750,Beta,Beta,True,988,1,12184,trainPhase
2,1,C1250,Gamma,Gamma,True,941,1,12184,trainPhase
3,1,B950,Beta,Gamma,False,1672,1,12184,trainPhase
4,1,B650,Beta,Beta,True,7488,1,12184,trainPhase
5,1,C1450,Gamma,Gamma,True,1247,1,12184,trainPhase
6,1,C1350,Gamma,Gamma,True,1270,1,12184,trainPhase
7,1,C1150,Gamma,Gamma,True,2373,1,12184,trainPhase
8,1,B850,Beta,Beta,True,2499,1,12184,trainPhase
9,1,C1050,Gamma,Beta,False,2695,1,12184,trainPhase
0,2,B750,Beta,Beta,True,1997,1,12184,trainPhase
1,2,B650,Beta,Beta,True,921,1,12184,trainPhase
2,2,C1250,Gamma,Gamma,True,1137,1,12184,trainPhase
3,2,C1350,Gamma,Gamma,True,811,1,12184,trainPhase
4,2,B550,Beta,Beta,True,1092,1,12184,trainPhase
5,2,B950,Beta,Beta,True,782,1,12184,trainPhase
6,2,C1450,Gamma,Gamma,True,990,1,12184,trainPhase
7,2,C1150,Gamma,Gamma,True,942,1,12184,trainPhase
8,2,C1050,Gamma,Gamma,True,3075,1,12184,trainPhase
9,2,B850,Beta,Gamma,False,834,1,12184,trainPhase
0,3,C1450,Gamma,Gamma,True,6296,1,12184,trainPhase
1,3,C1350,Gamma,Gamma,True,1037,1,12184,trainPhase
2,3,C1050,Gamma,Gamma,True,1682,1,12184,trainPhase
3,3,C1250,Gamma,Gamma,True,1122,1,12184,trainPhase
4,3,B550,Beta,Beta,True,1039,1,12184,trainPhase
5,3,B750,Beta,Beta,True,806,1,12184,trainPhase
6,3,B650,Beta,Beta,True,765,1,12184,trainPhase
7,3,B850,Beta,Beta,True,918,1,12184,trainPhase
8,3,B950,Beta,Gamma,False,764,1,12184,trainPhase
9,3,C1150,Gamma,Gamma,True,1632,1,12184,trainPhase
0,4,B950,Beta,Beta,True,1513,1,12184,trainPhase
1,4,B750,Beta,Beta,True,1294,1,12184,trainPhase
2,4,B850,Beta,Beta,True,748,1,12184,trainPhase
3,4,C1450,Gamma,Gamma,True,894,1,12184,trainPhase
4,4,B550,Beta,Beta,True,1334,1,12184,trainPhase
5,4,C1250,Gamma,Gamma,True,1135,1,12184,trainPhase
6,4,C1350,Gamma,Gamma,True,946,1,12184,trainPhase
7,4,C1150,Gamma,Gamma,True,1146,1,12184,trainPhase
8,4,C1050,Gamma,Gamma,True,2001,1,12184,trainPhase
9,4,B650,Beta,Beta,True,693,1,12184,trainPhase
0,0,B550,Beta,Gamma,False,5289,1,12187,trainPhase
1,0,C1150,Gamma,Gamma,True,2129,1,12187,trainPhase
2,0,B850,Beta,Beta,True,2795,1,12187,trainPhase
3,0,C1350,Gamma,Gamma,True,1344,1,12187,trainPhase
4,0,B750,Beta,Beta,True,1361,1,12187,trainPhase
5,0,C1450,Gamma,Gamma,True,1278,1,12187,trainPhase
6,0,C1050,Gamma,Gamma,True,1350,1,12187,trainPhase
7,0,C1250,Gamma,Gamma,True,1563,1,12187,trainPhase
8,0,B650,Beta,Beta,True,1270,1,12187,trainPhase
9,0,B950,Beta,Gamma,False,1277,1,12187,trainPhase
0,1,B750,Beta,Beta,True,1501,1,12187,trainPhase
1,1,B650,Beta,Beta,True,1270,1,12187,trainPhase
2,1,B850,Beta,Beta,True,2014,1,12187,trainPhase
3,1,C1250,Gamma,Gamma,True,880,1,12187,trainPhase
4,1,C1150,Gamma,Gamma,True,1151,1,12187,trainPhase
5,1,C1350,Gamma,Gamma,True,701,1,12187,trainPhase
6,1,C1450,Gamma,Gamma,True,960,1,12187,trainPhase
7,1,B550,Beta,Beta,True,809,1,12187,trainPhase
8,1,C1050,Gamma,Gamma,True,1102,1,12187,trainPhase
9,1,B950,Beta,Beta,True,1301,1,12187,trainPhase
0,2,C1250,Gamma,Gamma,True,1354,1,12187,trainPhase
1,2,C1050,Gamma,Gamma,True,2076,1,12187,trainPhase
2,2,B650,Beta,Beta,True,876,1,12187,trainPhase
3,2,B950,Beta,Gamma,False,2140,1,12187,trainPhase
4,2,B750,Beta,Beta,True,966,1,12187,trainPhase
5,2,C1450,Gamma,Gamma,True,877,1,12187,trainPhase
6,2,B850,Beta,Beta,True,1148,1,12187,trainPhase
7,2,B550,Beta,Beta,True,858,1,12187,trainPhase
8,2,C1350,Gamma,Gamma,True,811,1,12187,trainPhase
9,2,C1150,Gamma,Beta,False,1397,1,12187,trainPhase
0,3,C1150,Gamma,Beta,False,820,1,12187,trainPhase
1,3,C1250,Gamma,Gamma,True,630,1,12187,trainPhase
2,3,C1350,Gamma,Gamma,True,1089,1,12187,trainPhase
3,3,B950,Beta,Beta,True,909,1,12187,trainPhase
4,3,B650,Beta,Beta,True,673,1,12187,trainPhase
5,3,B850,Beta,Beta,True,1063,1,12187,trainPhase
6,3,B750,Beta,Beta,True,765,1,12187,trainPhase
7,3,C1050,Gamma,Gamma,True,844,1,12187,trainPhase
8,3,B550,Beta,Beta,True,749,1,12187,trainPhase
9,3,C1450,Gamma,Gamma,True,742,1,12187,trainPhase
0,4,B950,Beta,Gamma,False,1717,1,12187,trainPhase
1,4,C1350,Gamma,Gamma,True,1100,1,12187,trainPhase
2,4,B750,Beta,Beta,True,766,1,12187,trainPhase
3,4,C1250,Gamma,Gamma,True,702,1,12187,trainPhase
4,4,B550,Beta,Beta,True,694,1,12187,trainPhase
5,4,C1450,Gamma,Gamma,True,1126,1,12187,trainPhase
6,4,B650,Beta,Beta,True,1047,1,12187,trainPhase
7,4,C1150,Gamma,Beta,False,910,1,12187,trainPhase
8,4,B850,Beta,Beta,True,952,1,12187,trainPhase
9,4,C1050,Gamma,Beta,False,1573,1,12187,trainPhase
0,0,C1250,Gamma,Gamma,True,3010,1,12190,trainPhase
1,0,B950,Beta,Gamma,False,2300,1,12190,trainPhase
2,0,B550,Beta,Beta,True,1828,1,12190,trainPhase
3,0,C1050,Gamma,Gamma,True,954,1,12190,trainPhase
4,0,B650,Beta,Beta,True,589,1,12190,trainPhase
5,0,B750,Beta,Beta,True,710,1,12190,trainPhase
6,0,C1450,Gamma,Gamma,True,726,1,12190,trainPhase
7,0,C1350,Gamma,Gamma,True,694,1,12190,trainPhase
8,0,B850,Beta,Gamma,False,1372,1,12190,trainPhase
9,0,C1150,Gamma,Gamma,True,951,1,12190,trainPhase
0,1,B750,Beta,Beta,True,909,1,12190,trainPhase
1,1,C1050,Gamma,Gamma,True,765,1,12190,trainPhase
2,1,B550,Beta,Beta,True,693,1,12190,trainPhase
3,1,C1350,Gamma,Gamma,True,981,1,12190,trainPhase
4,1,C1450,Gamma,Gamma,True,714,1,12190,trainPhase
5,1,B850,Beta,Gamma,False,792,1,12190,trainPhase
6,1,C1150,Gamma,Gamma,True,853,1,12190,trainPhase
7,1,B650,Beta,Beta,True,967,1,12190,trainPhase
8,1,C1250,Gamma,Gamma,True,758,1,12190,trainPhase
9,1,B950,Beta,Gamma,False,750,1,12190,trainPhase
0,2,B850,Beta,Beta,True,965,1,12190,trainPhase
1,2,C1150,Gamma,Beta,False,899,1,12190,trainPhase
2,2,C1450,Gamma,Gamma,True,750,1,12190,trainPhase
3,2,C1250,Gamma,Gamma,True,785,1,12190,trainPhase
4,2,B550,Beta,Beta,True,957,1,12190,trainPhase
5,2,B950,Beta,Gamma,False,721,1,12190,trainPhase
6,2,B750,Beta,Beta,True,1110,1,12190,trainPhase
7,2,C1050,Gamma,Gamma,True,654,1,12190,trainPhase
8,2,C1350,Gamma,Gamma,True,1438,1,12190,trainPhase
9,2,B650,Beta,Beta,True,1142,1,12190,trainPhase
0,3,B750,Beta,Beta,True,805,1,12190,trainPhase
1,3,C1250,Gamma,Gamma,True,829,1,12190,trainPhase
2,3,C1350,Gamma,Gamma,True,789,1,12190,trainPhase
3,3,B650,Beta,Beta,True,1022,1,12190,trainPhase
4,3,B850,Beta,Beta,True,1525,1,12190,trainPhase
5,3,B550,Beta,Beta,True,1014,1,12190,trainPhase
6,3,C1450,Gamma,Gamma,True,629,1,12190,trainPhase
7,3,C1050,Gamma,Gamma,True,722,1,12190,trainPhase
8,3,B950,Beta,Gamma,False,931,1,12190,trainPhase
9,3,C1150,Gamma,Gamma,True,1269,1,12190,trainPhase
0,4,C1450,Gamma,Gamma,True,1134,1,12190,trainPhase
1,4,B850,Beta,Gamma,False,863,1,12190,trainPhase
2,4,B550,Beta,Beta,True,1379,1,12190,trainPhase
3,4,B750,Beta,Beta,True,935,1,12190,trainPhase
4,4,C1050,Gamma,Gamma,True,1436,1,12190,trainPhase
5,4,C1150,Gamma,Gamma,True,1158,1,12190,trainPhase
6,4,C1350,Gamma,Gamma,True,748,1,12190,trainPhase
7,4,C1250,Gamma,Gamma,True,774,1,12190,trainPhase
8,4,B950,Beta,Gamma,False,758,1,12190,trainPhase
9,4,B650,Beta,Beta,True,1254,1,12190,trainPhase
0,0,C1050,Gamma,Beta,False,11330,1,12193,trainPhase
1,0,B750,Beta,Beta,True,3493,1,12193,trainPhase
2,0,C1350,Gamma,Gamma,True,1948,1,12193,trainPhase
3,0,C1250,Gamma,Gamma,True,1679,1,12193,trainPhase
4,0,B550,Beta,Beta,True,1992,1,12193,trainPhase
5,0,C1150,Gamma,Gamma,True,1823,1,12193,trainPhase
6,0,B850,Beta,Gamma,False,2325,1,12193,trainPhase
7,0,C1450,Gamma,Gamma,True,1312,1,12193,trainPhase
8,0,B950,Beta,Gamma,False,2007,1,12193,trainPhase
9,0,B650,Beta,Beta,True,1247,1,12193,trainPhase
0,1,C1250,Gamma,Gamma,True,1789,1,12193,trainPhase
1,1,B950,Beta,Beta,True,4823,1,12193,trainPhase
2,1,B550,Beta,Beta,True,1152,1,12193,trainPhase
3,1,B750,Beta,Beta,True,907,1,12193,trainPhase
4,1,C1350,Gamma,Gamma,True,1052,1,12193,trainPhase
5,1,C1150,Gamma,Gamma,True,1484,1,12193,trainPhase
6,1,C1050,Gamma,Gamma,True,1293,1,12193,trainPhase
7,1,B650,Beta,Beta,True,863,1,12193,trainPhase
8,1,C1450,Gamma,Gamma,True,1085,1,12193,trainPhase
9,1,B850,Beta,Beta,True,1656,1,12193,trainPhase
0,2,B550,Beta,Beta,True,801,1,12193,trainPhase
1,2,C1050,Gamma,Gamma,True,1453,1,12193,trainPhase
2,2,C1250,Gamma,Gamma,True,877,1,12193,trainPhase
3,2,C1450,Gamma,Gamma,True,710,1,12193,trainPhase
4,2,B750,Beta,Beta,True,1303,1,12193,trainPhase
5,2,C1150,Gamma,Gamma,True,1249,1,12193,trainPhase
6,2,B850,Beta,Beta,True,964,1,12193,trainPhase
7,2,B950,Beta,Gamma,False,3143,1,12193,trainPhase
8,2,B650,Beta,Beta,True,789,1,12193,trainPhase
9,2,C1350,Gamma,Gamma,True,782,1,12193,trainPhase
0,3,C1450,Gamma,Gamma,True,1023,1,12193,trainPhase
1,3,C1050,Gamma,Gamma,True,1677,1,12193,trainPhase
2,3,B650,Beta,Beta,True,629,1,12193,trainPhase
3,3,B750,Beta,Beta,True,1169,1,12193,trainPhase
4,3,C1250,Gamma,Gamma,True,1141,1,12193,trainPhase
5,3,B850,Beta,Beta,True,1627,1,12193,trainPhase
6,3,C1350,Gamma,Gamma,True,1039,1,12193,trainPhase
7,3,C1150,Gamma,Gamma,True,1109,1,12193,trainPhase
8,3,B550,Beta,Beta,True,790,1,12193,trainPhase
9,3,B950,Beta,Beta,True,1710,1,12193,trainPhase
0,4,B550,Beta,Beta,True,678,1,12193,trainPhase
1,4,C1250,Gamma,Gamma,True,892,1,12193,trainPhase
2,4,B750,Beta,Beta,True,718,1,12193,trainPhase
3,4,B650,Beta,Beta,True,526,1,12193,trainPhase
4,4,B950,Beta,Beta,True,966,1,12193,trainPhase
5,4,C1350,Gamma,Gamma,True,861,1,12193,trainPhase
6,4,C1150,Gamma,Gamma,True,916,1,12193,trainPhase
7,4,B850,Beta,Beta,True,990,1,12193,trainPhase
8,4,C1050,Gamma,Gamma,True,2042,1,12193,trainPhase
9,4,C1450,Gamma,Gamma,True,1262,1,12193,trainPhase
0,0,B850,Beta,Gamma,False,3660,1,12196,trainPhase
1,0,C1450,Gamma,Gamma,True,4982,1,12196,trainPhase
2,0,C1350,Gamma,Gamma,True,1919,1,12196,trainPhase
3,0,B950,Beta,Beta,True,1259,1,12196,trainPhase
4,0,C1250,Gamma,Gamma,True,1079,1,12196,trainPhase
5,0,B550,Beta,Beta,True,1241,1,12196,trainPhase
6,0,B650,Beta,Beta,True,992,1,12196,trainPhase
7,0,B750,Beta,Beta,True,1078,1,12196,trainPhase
8,0,C1150,Gamma,Beta,False,1654,1,12196,trainPhase
9,0,C1050,Gamma,Gamma,True,2688,1,12196,trainPhase
0,1,B850,Beta,Beta,True,1153,1,12196,trainPhase
1,1,C1350,Gamma,Gamma,True,1230,1,12196,trainPhase
2,1,C1250,Gamma,Gamma,True,1960,1,12196,trainPhase
3,1,B650,Beta,Beta,True,985,1,12196,trainPhase
4,1,B750,Beta,Beta,True,832,1,12196,trainPhase
5,1,B550,Beta,Beta,True,893,1,12196,trainPhase
6,1,B950,Beta,Beta,True,1507,1,12196,trainPhase
7,1,C1150,Gamma,Gamma,True,1424,1,12196,trainPhase
8,1,C1050,Gamma,Beta,False,1912,1,12196,trainPhase
9,1,C1450,Gamma,Gamma,True,942,1,12196,trainPhase
0,2,B650,Beta,Beta,True,781,1,12196,trainPhase
1,2,C1250,Gamma,Gamma,True,1394,1,12196,trainPhase
2,2,C1450,Gamma,Gamma,True,1280,1,12196,trainPhase
3,2,B850,Beta,Beta,True,1374,1,12196,trainPhase
4,2,B550,Beta,Beta,True,878,1,12196,trainPhase
5,2,B950,Beta,Beta,True,1249,1,12196,trainPhase
6,2,B750,Beta,Beta,True,1229,1,12196,trainPhase
7,2,C1050,Gamma,Beta,False,2646,1,12196,trainPhase
8,2,C1350,Gamma,Gamma,True,1011,1,12196,trainPhase
9,2,C1150,Gamma,Gamma,True,1311,1,12196,trainPhase
0,3,B650,Beta,Beta,True,990,1,12196,trainPhase
1,3,B550,Beta,Beta,True,1135,1,12196,trainPhase
2,3,B750,Beta,Beta,True,846,1,12196,trainPhase
3,3,C1150,Gamma,Gamma,True,1678,1,12196,trainPhase
4,3,C1250,Gamma,Gamma,True,943,1,12196,trainPhase
5,3,C1050,Gamma,Gamma,True,1591,1,12196,trainPhase
6,3,C1350,Gamma,Gamma,True,1038,1,12196,trainPhase
7,3,C1450,Gamma,Gamma,True,837,1,12196,trainPhase
8,3,B950,Beta,Gamma,False,4473,1,12196,trainPhase
9,3,B850,Beta,Beta,True,878,1,12196,trainPhase
0,4,B550,Beta,Beta,True,670,1,12196,trainPhase
1,4,B650,Beta,Beta,True,733,1,12196,trainPhase
2,4,C1450,Gamma,Gamma,True,959,1,12196,trainPhase
3,4,C1250,Gamma,Gamma,True,1564,1,12196,trainPhase
4,4,C1150,Gamma,Gamma,True,942,1,12196,trainPhase
5,4,C1050,Gamma,Gamma,True,1106,1,12196,trainPhase
6,4,B750,Beta,Beta,True,804,1,12196,trainPhase
7,4,B950,Beta,Beta,True,720,1,12196,trainPhase
8,4,B850,Beta,Beta,True,831,1,12196,trainPhase
9,4,C1350,Gamma,Gamma,True,925,1,12196,trainPhase
0,0,B950,Beta,Beta,True,4466,1,12199,trainPhase
1,0,C1350,Gamma,Beta,False,4604,1,12199,trainPhase
2,0,B650,Beta,Gamma,False,4279,1,12199,trainPhase
3,0,C1150,Gamma,Gamma,True,1925,1,12199,trainPhase
4,0,C1450,Gamma,Beta,False,1883,1,12199,trainPhase
5,0,B750,Beta,Beta,True,2131,1,12199,trainPhase
6,0,C1050,Gamma,Beta,False,2891,1,12199,trainPhase
7,0,B850,Beta,Beta,True,1646,1,12199,trainPhase
8,0,B550,Beta,Gamma,False,1200,1,12199,trainPhase
9,0,C1250,Gamma,Gamma,True,1307,1,12199,trainPhase
0,1,C1050,Gamma,Beta,False,4066,1,12199,trainPhase
1,1,B650,Beta,Gamma,False,3866,1,12199,trainPhase
2,1,B950,Beta,Gamma,False,1046,1,12199,trainPhase
3,1,B750,Beta,Gamma,False,733,1,12199,trainPhase
4,1,C1350,Gamma,Gamma,True,1029,1,12199,trainPhase
5,1,B550,Beta,Beta,True,1623,1,12199,trainPhase
6,1,C1250,Gamma,Gamma,True,1566,1,12199,trainPhase
7,1,B850,Beta,Beta,True,1222,1,12199,trainPhase
8,1,C1450,Gamma,Gamma,True,1146,1,12199,trainPhase
9,1,C1150,Gamma,Gamma,True,1669,1,12199,trainPhase
0,2,B550,Beta,Beta,True,1050,1,12199,trainPhase
1,2,B750,Beta,Beta,True,1739,1,12199,trainPhase
2,2,B850,Beta,Beta,True,1284,1,12199,trainPhase
3,2,C1350,Gamma,Gamma,True,838,1,12199,trainPhase
4,2,B950,Beta,Beta,True,2518,1,12199,trainPhase
5,2,C1050,Gamma,Gamma,True,978,1,12199,trainPhase
6,2,B650,Beta,Beta,True,962,1,12199,trainPhase
7,2,C1150,Gamma,Gamma,True,998,1,12199,trainPhase
8,2,C1450,Gamma,Gamma,True,941,1,12199,trainPhase
9,2,C1250,Gamma,Gamma,True,979,1,12199,trainPhase
0,3,C1450,Gamma,Gamma,True,926,1,12199,trainPhase
1,3,B850,Beta,Beta,True,1294,1,12199,trainPhase
2,3,B550,Beta,Beta,True,1012,1,12199,trainPhase
3,3,B750,Beta,Gamma,False,835,1,12199,trainPhase
4,3,C1050,Gamma,Gamma,True,889,1,12199,trainPhase
5,3,B950,Beta,Gamma,False,1319,1,12199,trainPhase
6,3,C1250,Gamma,Gamma,True,1070,1,12199,trainPhase
7,3,C1350,Gamma,Gamma,True,695,1,12199,trainPhase
8,3,C1150,Gamma,Beta,False,1140,1,12199,trainPhase
9,3,B650,Beta,Beta,True,985,1,12199,trainPhase
0,4,B550,Beta,Beta,True,934,1,12199,trainPhase
1,4,C1250,Gamma,Gamma,True,780,1,12199,trainPhase
2,4,C1450,Gamma,Gamma,True,1249,1,12199,trainPhase
3,4,C1050,Gamma,Beta,False,985,1,12199,trainPhase
4,4,B750,Beta,Beta,True,1654,1,12199,trainPhase
5,4,B850,Beta,Beta,True,2399,1,12199,trainPhase
6,4,C1150,Gamma,Gamma,True,736,1,12199,trainPhase
7,4,B950,Beta,Gamma,False,2250,1,12199,trainPhase
8,4,C1350,Gamma,Gamma,True,687,1,12199,trainPhase
9,4,B650,Beta,Beta,True,1100,1,12199,trainPhase
0,0,B550,Beta,Beta,True,3746,1,11296,trainPhase
1,0,C1050,Gamma,Gamma,True,1665,1,11296,trainPhase
2,0,C1150,Gamma,Gamma,True,1116,1,11296,trainPhase
3,0,B850,Beta,Beta,True,2239,1,11296,trainPhase
4,0,B950,Beta,Beta,True,2962,1,11296,trainPhase
5,0,C1450,Gamma,Gamma,True,1144,1,11296,trainPhase
6,0,C1250,Gamma,Beta,False,1415,1,11296,trainPhase
7,0,B650,Beta,Beta,True,3078,1,11296,trainPhase
8,0,B750,Beta,Gamma,False,2040,1,11296,trainPhase
9,0,C1350,Gamma,Gamma,True,1013,1,11296,trainPhase
0,1,C1050,Gamma,Beta,False,1319,1,11296,trainPhase
1,1,B650,Beta,Beta,True,1333,1,11296,trainPhase
2,1,B550,Beta,Beta,True,2512,1,11296,trainPhase
3,1,C1350,Gamma,Gamma,True,918,1,11296,trainPhase
4,1,C1250,Gamma,Gamma,True,1390,1,11296,trainPhase
5,1,B750,Beta,Beta,True,845,1,11296,trainPhase
6,1,C1450,Gamma,Gamma,True,905,1,11296,trainPhase
7,1,B950,Beta,Beta,True,868,1,11296,trainPhase
8,1,C1150,Gamma,Gamma,True,4846,1,11296,trainPhase
9,1,B850,Beta,Beta,True,1128,1,11296,trainPhase
0,2,B550,Beta,Beta,True,853,1,11296,trainPhase
1,2,B950,Beta,Beta,True,1590,1,11296,trainPhase
2,2,B650,Beta,Beta,True,733,1,11296,trainPhase
3,2,C1450,Gamma,Gamma,True,800,1,11296,trainPhase
4,2,C1350,Gamma,Gamma,True,1220,1,11296,trainPhase
5,2,C1150,Gamma,Beta,False,1667,1,11296,trainPhase
6,2,C1050,Gamma,Beta,False,918,1,11296,trainPhase
7,2,B750,Beta,Beta,True,1126,1,11296,trainPhase
8,2,B850,Beta,Beta,True,975,1,11296,trainPhase
9,2,C1250,Gamma,Gamma,True,1041,1,11296,trainPhase
0,3,B550,Beta,Beta,True,885,1,11296,trainPhase
1,3,C1050,Gamma,Beta,False,1284,1,11296,trainPhase
2,3,B750,Beta,Beta,True,967,1,11296,trainPhase
3,3,C1450,Gamma,Gamma,True,821,1,11296,trainPhase
4,3,B650,Beta,Beta,True,783,1,11296,trainPhase
5,3,B950,Beta,Beta,True,853,1,11296,trainPhase
6,3,C1350,Gamma,Gamma,True,727,1,11296,trainPhase
7,3,C1250,Gamma,Gamma,True,788,1,11296,trainPhase
8,3,B850,Beta,Beta,True,1931,1,11296,trainPhase
9,3,C1150,Gamma,Gamma,True,1205,1,11296,trainPhase
0,4,C1150,Gamma,Gamma,True,924,1,11296,trainPhase
1,4,B950,Beta,Gamma,False,1262,1,11296,trainPhase
2,4,B650,Beta,Beta,True,742,1,11296,trainPhase
3,4,B750,Beta,Beta,True,883,1,11296,trainPhase
4,4,C1350,Gamma,Gamma,True,1089,1,11296,trainPhase
5,4,B550,Beta,Beta,True,2281,1,11296,trainPhase
6,4,C1050,Gamma,Beta,False,2856,1,11296,trainPhase
7,4,C1450,Gamma,Gamma,True,582,1,11296,trainPhase
8,4,B850,Beta,Beta,True,5268,1,11296,trainPhase
9,4,C1250,Gamma,Gamma,True,651,1,11296,trainPhase
0,0,C1050,Gamma,Gamma,True,4926,1,12202,trainPhase
1,0,B750,Beta,Gamma,False,3811,1,12202,trainPhase
2,0,B650,Beta,Beta,True,2513,1,12202,trainPhase
3,0,C1150,Gamma,Gamma,True,2763,1,12202,trainPhase
4,0,B850,Beta,Gamma,False,1695,1,12202,trainPhase
5,0,C1250,Gamma,Gamma,True,1635,1,12202,trainPhase
6,0,B950,Beta,Beta,True,1241,1,12202,trainPhase
7,0,C1450,Gamma,Gamma,True,1245,1,12202,trainPhase
8,0,C1350,Gamma,Gamma,True,1309,1,12202,trainPhase
9,0,B550,Beta,Beta,True,1050,1,12202,trainPhase
0,1,B650,Beta,Beta,True,912,1,12202,trainPhase
1,1,C1050,Gamma,Beta,False,1224,1,12202,trainPhase
2,1,B550,Beta,Beta,True,1111,1,12202,trainPhase
3,1,B950,Beta,Gamma,False,969,1,12202,trainPhase
4,1,B750,Beta,Beta,True,1069,1,12202,trainPhase
5,1,C1150,Gamma,Gamma,True,1248,1,12202,trainPhase
6,1,C1350,Gamma,Gamma,True,1138,1,12202,trainPhase
7,1,C1450,Gamma,Gamma,True,1574,1,12202,trainPhase
8,1,B850,Beta,Beta,True,1822,1,12202,trainPhase
9,1,C1250,Gamma,Gamma,True,1149,1,12202,trainPhase
0,2,B750,Beta,Beta,True,1174,1,12202,trainPhase
1,2,B550,Beta,Beta,True,2737,1,12202,trainPhase
2,2,C1250,Gamma,Gamma,True,1533,1,12202,trainPhase
3,2,B850,Beta,Beta,True,1010,1,12202,trainPhase
4,2,C1350,Gamma,Gamma,True,2328,1,12202,trainPhase
5,2,C1150,Gamma,Beta,False,2391,1,12202,trainPhase
6,2,C1050,Gamma,Gamma,True,1567,1,12202,trainPhase
7,2,B650,Beta,Beta,True,1020,1,12202,trainPhase
8,2,B950,Beta,Gamma,False,2862,1,12202,trainPhase
9,2,C1450,Gamma,Gamma,True,835,1,12202,trainPhase
0,3,C1150,Gamma,Gamma,True,1539,1,12202,trainPhase
1,3,B650,Beta,Beta,True,754,1,12202,trainPhase
2,3,C1450,Gamma,Gamma,True,797,1,12202,trainPhase
3,3,C1250,Gamma,Gamma,True,1023,1,12202,trainPhase
4,3,B950,Beta,Beta,True,1393,1,12202,trainPhase
5,3,C1050,Gamma,Gamma,True,4476,1,12202,trainPhase
6,3,C1350,Gamma,Gamma,True,1356,1,12202,trainPhase
7,3,B750,Beta,Beta,True,1572,1,12202,trainPhase
8,3,B550,Beta,Beta,True,726,1,12202,trainPhase
9,3,B850,Beta,Beta,True,1474,1,12202,trainPhase
0,4,B750,Beta,Beta,True,1017,1,12202,trainPhase
1,4,B950,Beta,Gamma,False,1070,1,12202,trainPhase
2,4,C1350,Gamma,Gamma,True,1096,1,12202,trainPhase
3,4,C1150,Gamma,Gamma,True,854,1,12202,trainPhase
4,4,B850,Beta,Beta,True,1396,1,12202,trainPhase
5,4,C1050,Gamma,Gamma,True,998,1,12202,trainPhase
6,4,C1250,Gamma,Gamma,True,688,1,12202,trainPhase
7,4,B550,Beta,Beta,True,1023,1,12202,trainPhase
8,4,C1450,Gamma,Gamma,True,907,1,12202,trainPhase
9,4,B650,Beta,Beta,True,1377,1,12202,trainPhase
0,0,C1350,Gamma,Gamma,True,4363,1,12218,trainPhase
1,0,B750,Beta,Gamma,False,4166,1,12218,trainPhase
2,0,C1450,Gamma,Beta,False,1282,1,12218,trainPhase
3,0,C1050,Gamma,Gamma,True,1481,1,12218,trainPhase
4,0,C1250,Gamma,Gamma,True,1701,1,12218,trainPhase
5,0,B650,Beta,Beta,True,1133,1,12218,trainPhase
6,0,B850,Beta,Gamma,False,936,1,12218,trainPhase
7,0,B550,Beta,Beta,True,1295,1,12218,trainPhase
8,0,C1150,Gamma,Gamma,True,1029,1,12218,trainPhase
9,0,B950,Beta,Gamma,False,1862,1,12218,trainPhase
0,1,C1250,Gamma,Gamma,True,773,1,12218,trainPhase
1,1,C1050,Gamma,Beta,False,845,1,12218,trainPhase
2,1,B850,Beta,Beta,True,1501,1,12218,trainPhase
3,1,B650,Beta,Beta,True,884,1,12218,trainPhase
4,1,C1150,Gamma,Gamma,True,1233,1,12218,trainPhase
5,1,C1350,Gamma,Gamma,True,1273,1,12218,trainPhase
6,1,B950,Beta,Gamma,False,1376,1,12218,trainPhase
7,1,B750,Beta,Beta,True,982,1,12218,trainPhase
8,1,C1450,Gamma,Gamma,True,904,1,12218,trainPhase
9,1,B550,Beta,Beta,True,1029,1,12218,trainPhase
0,2,C1050,Gamma,Beta,False,7239,1,12218,trainPhase
1,2,C1250,Gamma,Gamma,True,1065,1,12218,trainPhase
2,2,B550,Beta,Beta,True,815,1,12218,trainPhase
3,2,B750,Beta,Beta,True,995,1,12218,trainPhase
4,2,C1450,Gamma,Gamma,True,1074,1,12218,trainPhase
5,2,C1350,Gamma,Gamma,True,793,1,12218,trainPhase
6,2,B850,Beta,Gamma,False,904,1,12218,trainPhase
7,2,B950,Beta,Gamma,False,2513,1,12218,trainPhase
8,2,C1150,Gamma,Gamma,True,1054,1,12218,trainPhase
9,2,B650,Beta,Beta,True,685,1,12218,trainPhase
0,3,B650,Beta,Beta,True,611,1,12218,trainPhase
1,3,C1350,Gamma,Gamma,True,1581,1,12218,trainPhase
2,3,C1450,Gamma,Gamma,True,710,1,12218,trainPhase
3,3,C1050,Gamma,Beta,False,710,1,12218,trainPhase
4,3,C1150,Gamma,Gamma,True,942,1,12218,trainPhase
5,3,B550,Beta,Beta,True,1211,1,12218,trainPhase
6,3,B750,Beta,Beta,True,1159,1,12218,trainPhase
7,3,B950,Beta,Beta,True,11637,1,12218,trainPhase
8,3,B850,Beta,Beta,True,2739,1,12218,trainPhase
9,3,C1250,Gamma,Gamma,True,1015,1,12218,trainPhase
0,4,B550,Beta,Beta,True,926,1,12218,trainPhase
1,4,C1150,Gamma,Beta,False,2357,1,12218,trainPhase
2,4,B750,Beta,Beta,True,1053,1,12218,trainPhase
3,4,C1250,Gamma,Gamma,True,900,1,12218,trainPhase
4,4,B950,Beta,Gamma,False,924,1,12218,trainPhase
5,4,B850,Beta,Beta,True,1146,1,12218,trainPhase
6,4,C1050,Gamma,Beta,False,921,1,12218,trainPhase
7,4,C1350,Gamma,Gamma,True,741,1,12218,trainPhase
8,4,C1450,Gamma,Gamma,True,766,1,12218,trainPhase
9,4,B650,Beta,Beta,True,879,1,12218,trainPhase
0,0,C1350,Gamma,Gamma,True,4359,1,12221,trainPhase
1,0,C1150,Gamma,Gamma,True,2520,1,12221,trainPhase
2,0,B850,Beta,Beta,True,1352,1,12221,trainPhase
3,0,C1050,Gamma,Gamma,True,1351,1,12221,trainPhase
4,0,B650,Beta,Beta,True,1502,1,12221,trainPhase
5,0,B550,Beta,Beta,True,1372,1,12221,trainPhase
6,0,B750,Beta,Gamma,False,2773,1,12221,trainPhase
7,0,C1250,Gamma,Gamma,True,981,1,12221,trainPhase
8,0,B950,Beta,Gamma,False,1997,1,12221,trainPhase
9,0,C1450,Gamma,Gamma,True,1530,1,12221,trainPhase
0,1,C1350,Gamma,Gamma,True,1414,1,12221,trainPhase
1,1,B950,Beta,Beta,True,918,1,12221,trainPhase
2,1,B650,Beta,Beta,True,777,1,12221,trainPhase
3,1,B550,Beta,Beta,True,1453,1,12221,trainPhase
4,1,C1150,Gamma,Beta,False,2039,1,12221,trainPhase
5,1,C1250,Gamma,Gamma,True,890,1,12221,trainPhase
6,1,C1050,Gamma,Gamma,True,1453,1,12221,trainPhase
7,1,B750,Beta,Beta,True,837,1,12221,trainPhase
8,1,C1450,Gamma,Gamma,True,1599,1,12221,trainPhase
9,1,B850,Beta,Beta,True,2033,1,12221,trainPhase
0,2,C1450,Gamma,Gamma,True,1189,1,12221,trainPhase
1,2,B750,Beta,Beta,True,1181,1,12221,trainPhase
2,2,C1350,Gamma,Gamma,True,1071,1,12221,trainPhase
3,2,C1050,Gamma,Beta,False,1221,1,12221,trainPhase
4,2,B950,Beta,Gamma,False,974,1,12221,trainPhase
5,2,B650,Beta,Beta,True,582,1,12221,trainPhase
6,2,C1150,Gamma,Gamma,True,1566,1,12221,trainPhase
7,2,C1250,Gamma,Gamma,True,2301,1,12221,trainPhase
8,2,B850,Beta,Beta,True,924,1,12221,trainPhase
9,2,B550,Beta,Beta,True,1263,1,12221,trainPhase
0,3,B550,Beta,Beta,True,1277,1,12221,trainPhase
1,3,B850,Beta,Beta,True,1015,1,12221,trainPhase
2,3,C1250,Gamma,Gamma,True,1096,1,12221,trainPhase
3,3,C1450,Gamma,Gamma,True,1066,1,12221,trainPhase
4,3,B650,Beta,Beta,True,1365,1,12221,trainPhase
5,3,B750,Beta,Gamma,False,916,1,12221,trainPhase
6,3,C1150,Gamma,Gamma,True,1061,1,12221,trainPhase
7,3,C1050,Gamma,Gamma,True,2085,1,12221,trainPhase
8,3,B950,Beta,Gamma,False,1208,1,12221,trainPhase
9,3,C1350,Gamma,Gamma,True,1308,1,12221,trainPhase
0,4,B750,Beta,Beta,True,1515,1,12221,trainPhase
1,4,C1450,Gamma,Gamma,True,877,1,12221,trainPhase
2,4,C1150,Gamma,Gamma,True,1198,1,12221,trainPhase
3,4,C1250,Gamma,Gamma,True,1382,1,12221,trainPhase
4,4,B650,Beta,Gamma,False,1064,1,12221,trainPhase
5,4,C1050,Gamma,Gamma,True,1334,1,12221,trainPhase
6,4,B850,Beta,Beta,True,869,1,12221,trainPhase
7,4,C1350,Gamma,Gamma,True,1021,1,12221,trainPhase
8,4,B950,Beta,Beta,True,5474,1,12221,trainPhase
9,4,B550,Beta,Beta,True,1845,1,12221,trainPhase
0,0,C1450,Gamma,Beta,False,6350,1,12136,trainPhase
1,0,C1150,Gamma,Beta,False,3154,1,12136,trainPhase
2,0,C1350,Gamma,Gamma,True,1329,1,12136,trainPhase
3,0,B950,Beta,Gamma,False,1081,1,12136,trainPhase
4,0,B550,Beta,Beta,True,1346,1,12136,trainPhase
5,0,C1250,Gamma,Gamma,True,1453,1,12136,trainPhase
6,0,B850,Beta,Beta,True,1084,1,12136,trainPhase
7,0,B750,Beta,Beta,True,916,1,12136,trainPhase
8,0,C1050,Gamma,Beta,False,1216,1,12136,trainPhase
9,0,B650,Beta,Beta,True,2317,1,12136,trainPhase
0,1,B750,Beta,Beta,True,936,1,12136,trainPhase
1,1,B950,Beta,Gamma,False,1088,1,12136,trainPhase
2,1,C1150,Gamma,Gamma,True,1502,1,12136,trainPhase
3,1,C1450,Gamma,Gamma,True,875,1,12136,trainPhase
4,1,C1350,Gamma,Gamma,True,990,1,12136,trainPhase
5,1,C1250,Gamma,Gamma,True,798,1,12136,trainPhase
6,1,B550,Beta,Beta,True,926,1,12136,trainPhase
7,1,B850,Beta,Beta,True,1309,1,12136,trainPhase
8,1,B650,Beta,Beta,True,800,1,12136,trainPhase
9,1,C1050,Gamma,Beta,False,1550,1,12136,trainPhase
0,2,B950,Beta,Beta,True,1209,1,12136,trainPhase
1,2,C1150,Gamma,Gamma,True,1030,1,12136,trainPhase
2,2,B650,Beta,Beta,True,841,1,12136,trainPhase
3,2,B850,Beta,Beta,True,1484,1,12136,trainPhase
4,2,C1050,Gamma,Gamma,True,1022,1,12136,trainPhase
5,2,C1450,Gamma,Gamma,True,954,1,12136,trainPhase
6,2,B550,Beta,Beta,True,928,1,12136,trainPhase
7,2,C1250,Gamma,Gamma,True,741,1,12136,trainPhase
8,2,C1350,Gamma,Gamma,True,695,1,12136,trainPhase
9,2,B750,Beta,Beta,True,1014,1,12136,trainPhase
0,3,C1250,Gamma,Gamma,True,1253,1,12136,trainPhase
1,3,C1150,Gamma,Gamma,True,901,1,12136,trainPhase
2,3,B550,Beta,Beta,True,982,1,12136,trainPhase
3,3,C1350,Gamma,Gamma,True,820,1,12136,trainPhase
4,3,B750,Beta,Beta,True,1127,1,12136,trainPhase
5,3,B950,Beta,Gamma,False,911,1,12136,trainPhase
6,3,C1450,Gamma,Gamma,True,2513,1,12136,trainPhase
7,3,B850,Beta,Beta,True,914,1,12136,trainPhase
8,3,B650,Beta,Beta,True,858,1,12136,trainPhase
9,3,C1050,Gamma,Gamma,True,835,1,12136,trainPhase
0,4,C1050,Gamma,Gamma,True,801,1,12136,trainPhase
1,4,B750,Beta,Beta,True,1255,1,12136,trainPhase
2,4,C1150,Gamma,Gamma,True,854,1,12136,trainPhase
3,4,C1250,Gamma,Gamma,True,909,1,12136,trainPhase
4,4,B850,Beta,Beta,True,1166,1,12136,trainPhase
5,4,C1450,Gamma,Gamma,True,806,1,12136,trainPhase
6,4,C1350,Gamma,Gamma,True,734,1,12136,trainPhase
7,4,B550,Beta,Beta,True,838,1,12136,trainPhase
8,4,B950,Beta,Beta,True,2198,1,12136,trainPhase
9,4,B650,Beta,Beta,True,822,1,12136,trainPhase
0,0,B550,Beta,Gamma,False,9190,1,12224,trainPhase
1,0,C1150,Gamma,Gamma,True,2948,1,12224,trainPhase
2,0,B950,Beta,Gamma,False,1516,1,12224,trainPhase
3,0,B850,Beta,Beta,True,1798,1,12224,trainPhase
4,0,C1050,Gamma,Beta,False,2405,1,12224,trainPhase
5,0,C1450,Gamma,Gamma,True,3149,1,12224,trainPhase
6,0,B750,Beta,Beta,True,1982,1,12224,trainPhase
7,0,C1250,Gamma,Gamma,True,2749,1,12224,trainPhase
8,0,B650,Beta,Beta,True,1844,1,12224,trainPhase
9,0,C1350,Gamma,Gamma,True,2044,1,12224,trainPhase
0,1,B750,Beta,Beta,True,2677,1,12224,trainPhase
1,1,B850,Beta,Beta,True,1536,1,12224,trainPhase
2,1,B950,Beta,Gamma,False,1364,1,12224,trainPhase
3,1,B550,Beta,Beta,True,3344,1,12224,trainPhase
4,1,C1450,Gamma,Gamma,True,1488,1,12224,trainPhase
5,1,C1050,Gamma,Gamma,True,2178,1,12224,trainPhase
6,1,C1350,Gamma,Gamma,True,1386,1,12224,trainPhase
7,1,C1150,Gamma,Gamma,True,887,1,12224,trainPhase
8,1,C1250,Gamma,Gamma,True,909,1,12224,trainPhase
9,1,B650,Beta,Beta,True,1192,1,12224,trainPhase
0,2,B950,Beta,Gamma,False,757,1,12224,trainPhase
1,2,C1450,Gamma,Gamma,True,1333,1,12224,trainPhase
2,2,C1150,Gamma,Gamma,True,1217,1,12224,trainPhase
3,2,C1050,Gamma,Gamma,True,761,1,12224,trainPhase
4,2,B650,Beta,Beta,True,710,1,12224,trainPhase
5,2,C1250,Gamma,Gamma,True,811,1,12224,trainPhase
6,2,B750,Beta,Beta,True,1278,1,12224,trainPhase
7,2,B850,Beta,Beta,True,1630,1,12224,trainPhase
8,2,C1350,Gamma,Gamma,True,1031,1,12224,trainPhase
9,2,B550,Beta,Beta,True,1109,1,12224,trainPhase
0,3,B650,Beta,Beta,True,1174,1,12224,trainPhase
1,3,C1250,Gamma,Gamma,True,821,1,12224,trainPhase
2,3,B550,Beta,Beta,True,1077,1,12224,trainPhase
3,3,B850,Beta,Gamma,False,941,1,12224,trainPhase
4,3,C1150,Gamma,Gamma,True,1102,1,12224,trainPhase
5,3,C1050,Gamma,Gamma,True,1058,1,12224,trainPhase
6,3,B950,Beta,Gamma,False,1142,1,12224,trainPhase
7,3,C1450,Gamma,Gamma,True,732,1,12224,trainPhase
8,3,C1350,Gamma,Gamma,True,1334,1,12224,trainPhase
9,3,B750,Beta,Beta,True,680,1,12224,trainPhase
0,4,C1450,Gamma,Gamma,True,982,1,12224,trainPhase
1,4,B550,Beta,Beta,True,883,1,12224,trainPhase
2,4,C1050,Gamma,Beta,False,1171,1,12224,trainPhase
3,4,B750,Beta,Beta,True,1200,1,12224,trainPhase
4,4,B850,Beta,Gamma,False,870,1,12224,trainPhase
5,4,C1350,Gamma,Gamma,True,865,1,12224,trainPhase
6,4,C1150,Gamma,Gamma,True,729,1,12224,trainPhase
7,4,B650,Beta,Beta,True,732,1,12224,trainPhase
8,4,C1250,Gamma,Gamma,True,758,1,12224,trainPhase
9,4,B950,Beta,Beta,True,968,1,12224,trainPhase
0,0,B650,Beta,Gamma,False,3747,1,12227,trainPhase
1,0,B850,Beta,Gamma,False,2304,1,12227,trainPhase
2,0,C1450,Gamma,Gamma,True,1454,1,12227,trainPhase
3,0,C1250,Gamma,Gamma,True,1609,1,12227,trainPhase
4,0,B750,Beta,Beta,True,1246,1,12227,trainPhase
5,0,C1350,Gamma,Gamma,True,1168,1,12227,trainPhase
6,0,C1050,Gamma,Gamma,True,1315,1,12227,trainPhase
7,0,C1150,Gamma,Gamma,True,960,1,12227,trainPhase
8,0,B950,Beta,Beta,True,926,1,12227,trainPhase
9,0,B550,Beta,Beta,True,912,1,12227,trainPhase
0,1,B550,Beta,Beta,True,833,1,12227,trainPhase
1,1,B850,Beta,Gamma,False,993,1,12227,trainPhase
2,1,B950,Beta,Beta,True,1049,1,12227,trainPhase
3,1,B650,Beta,Beta,True,997,1,12227,trainPhase
4,1,C1450,Gamma,Gamma,True,901,1,12227,trainPhase
5,1,C1150,Gamma,Gamma,True,949,1,12227,trainPhase
6,1,C1350,Gamma,Gamma,True,791,1,12227,trainPhase
7,1,C1250,Gamma,Gamma,True,621,1,12227,trainPhase
8,1,C1050,Gamma,Gamma,True,578,1,12227,trainPhase
9,1,B750,Beta,Beta,True,909,1,12227,trainPhase
0,2,B750,Beta,Beta,True,445,1,12227,trainPhase
1,2,C1150,Gamma,Beta,False,381,1,12227,trainPhase
2,2,C1250,Gamma,Gamma,True,877,1,12227,trainPhase
3,2,C1350,Gamma,Gamma,True,603,1,12227,trainPhase
4,2,C1450,Gamma,Gamma,True,590,1,12227,trainPhase
5,2,B550,Beta,Beta,True,933,1,12227,trainPhase
6,2,B950,Beta,Beta,True,713,1,12227,trainPhase
7,2,C1050,Gamma,Beta,False,797,1,12227,trainPhase
8,2,B650,Beta,Beta,True,1403,1,12227,trainPhase
9,2,B850,Beta,Beta,True,858,1,12227,trainPhase
0,3,B550,Beta,Beta,True,702,1,12227,trainPhase
1,3,C1450,Gamma,Gamma,True,1144,1,12227,trainPhase
2,3,B950,Beta,Gamma,False,758,1,12227,trainPhase
3,3,C1150,Gamma,Gamma,True,1055,1,12227,trainPhase
4,3,B650,Beta,Beta,True,935,1,12227,trainPhase
5,3,C1250,Gamma,Gamma,True,775,1,12227,trainPhase
6,3,C1350,Gamma,Gamma,True,706,1,12227,trainPhase
7,3,B750,Beta,Beta,True,825,1,12227,trainPhase
8,3,B850,Beta,Beta,True,695,1,12227,trainPhase
9,3,C1050,Gamma,Gamma,True,860,1,12227,trainPhase
0,4,C1150,Gamma,Gamma,True,630,1,12227,trainPhase
1,4,B850,Beta,Beta,True,953,1,12227,trainPhase
2,4,B650,Beta,Beta,True,623,1,12227,trainPhase
3,4,C1350,Gamma,Gamma,True,695,1,12227,trainPhase
4,4,C1050,Gamma,Gamma,True,710,1,12227,trainPhase
5,4,C1450,Gamma,Gamma,True,1166,1,12227,trainPhase
6,4,B750,Beta,Gamma,False,571,1,12227,trainPhase
7,4,B950,Beta,Gamma,False,1129,1,12227,trainPhase
8,4,C1250,Gamma,Gamma,True,1466,1,12227,trainPhase
9,4,B550,Beta,Beta,True,691,1,12227,trainPhase
0,0,C1250,Gamma,Gamma,True,4789,1,12230,trainPhase
1,0,C1150,Gamma,Gamma,True,1442,1,12230,trainPhase
2,0,B650,Beta,Beta,True,1182,1,12230,trainPhase
3,0,B950,Beta,Gamma,False,830,1,12230,trainPhase
4,0,B750,Beta,Beta,True,1478,1,12230,trainPhase
5,0,C1350,Gamma,Gamma,True,2485,1,12230,trainPhase
6,0,C1450,Gamma,Gamma,True,957,1,12230,trainPhase
7,0,B550,Beta,Beta,True,909,1,12230,trainPhase
8,0,B850,Beta,Beta,True,998,1,12230,trainPhase
9,0,C1050,Gamma,Beta,False,1550,1,12230,trainPhase
0,1,C1450,Gamma,Gamma,True,758,1,12230,trainPhase
1,1,C1050,Gamma,Gamma,True,1998,1,12230,trainPhase
2,1,B950,Beta,Gamma,False,1230,1,12230,trainPhase
3,1,C1150,Gamma,Gamma,True,749,1,12230,trainPhase
4,1,B550,Beta,Beta,True,910,1,12230,trainPhase
5,1,B750,Beta,Beta,True,884,1,12230,trainPhase
6,1,C1350,Gamma,Gamma,True,614,1,12230,trainPhase
7,1,C1250,Gamma,Gamma,True,782,1,12230,trainPhase
8,1,B850,Beta,Beta,True,1342,1,12230,trainPhase
9,1,B650,Beta,Beta,True,870,1,12230,trainPhase
0,2,C1050,Gamma,Gamma,True,1317,1,12230,trainPhase
1,2,B850,Beta,Beta,True,869,1,12230,trainPhase
2,2,C1150,Gamma,Gamma,True,1222,1,12230,trainPhase
3,2,B650,Beta,Beta,True,694,1,12230,trainPhase
4,2,B950,Beta,Beta,True,975,1,12230,trainPhase
5,2,B750,Beta,Beta,True,733,1,12230,trainPhase
6,2,B550,Beta,Beta,True,1134,1,12230,trainPhase
7,2,C1450,Gamma,Gamma,True,854,1,12230,trainPhase
8,2,C1250,Gamma,Gamma,True,692,1,12230,trainPhase
9,2,C1350,Gamma,Gamma,True,574,1,12230,trainPhase
0,3,C1350,Gamma,Gamma,True,573,1,12230,trainPhase
1,3,B750,Beta,Beta,True,572,1,12230,trainPhase
2,3,B850,Beta,Beta,True,998,1,12230,trainPhase
3,3,C1150,Gamma,Gamma,True,1397,1,12230,trainPhase
4,3,B650,Beta,Beta,True,757,1,12230,trainPhase
5,3,B950,Beta,Beta,True,1261,1,12230,trainPhase
6,3,C1250,Gamma,Gamma,True,941,1,12230,trainPhase
7,3,C1450,Gamma,Gamma,True,924,1,12230,trainPhase
8,3,C1050,Gamma,Gamma,True,1278,1,12230,trainPhase
9,3,B550,Beta,Beta,True,966,1,12230,trainPhase
0,4,B550,Beta,Beta,True,1438,1,12230,trainPhase
1,4,B650,Beta,Beta,True,814,1,12230,trainPhase
2,4,C1050,Gamma,Beta,False,1157,1,12230,trainPhase
3,4,C1350,Gamma,Gamma,True,734,1,12230,trainPhase
4,4,B950,Beta,Beta,True,1542,1,12230,trainPhase
5,4,C1150,Gamma,Gamma,True,577,1,12230,trainPhase
6,4,B750,Beta,Beta,True,692,1,12230,trainPhase
7,4,C1450,Gamma,Gamma,True,838,1,12230,trainPhase
8,4,B850,Beta,Beta,True,1326,1,12230,trainPhase
9,4,C1250,Gamma,Gamma,True,855,1,12230,trainPhase
0,0,C1150,Gamma,Gamma,True,4769,1,12133,trainPhase
1,0,B750,Beta,Gamma,False,2380,1,12133,trainPhase
2,0,C1250,Gamma,Gamma,True,1387,1,12133,trainPhase
3,0,B850,Beta,Beta,True,956,1,12133,trainPhase
4,0,C1450,Gamma,Gamma,True,1569,1,12133,trainPhase
5,0,B950,Beta,Beta,True,1445,1,12133,trainPhase
6,0,C1350,Gamma,Gamma,True,2448,1,12133,trainPhase
7,0,C1050,Gamma,Beta,False,1743,1,12133,trainPhase
8,0,B550,Beta,Beta,True,2477,1,12133,trainPhase
9,0,B650,Beta,Gamma,False,1283,1,12133,trainPhase
0,1,B650,Beta,Beta,True,1455,1,12133,trainPhase
1,1,C1350,Gamma,Beta,False,1175,1,12133,trainPhase
2,1,C1150,Gamma,Gamma,True,1967,1,12133,trainPhase
3,1,B950,Beta,Gamma,False,2964,1,12133,trainPhase
4,1,C1250,Gamma,Gamma,True,1406,1,12133,trainPhase
5,1,B550,Beta,Beta,True,881,1,12133,trainPhase
6,1,C1050,Gamma,Gamma,True,1689,1,12133,trainPhase
7,1,B850,Beta,Gamma,False,1765,1,12133,trainPhase
8,1,C1450,Gamma,Gamma,True,1109,1,12133,trainPhase
9,1,B750,Beta,Beta,True,1247,1,12133,trainPhase
0,2,B950,Beta,Gamma,False,1655,1,12133,trainPhase
1,2,C1150,Gamma,Gamma,True,1478,1,12133,trainPhase
2,2,B550,Beta,Gamma,False,1295,1,12133,trainPhase
3,2,B850,Beta,Beta,True,787,1,12133,trainPhase
4,2,C1050,Gamma,Beta,False,1203,1,12133,trainPhase
5,2,C1250,Gamma,Gamma,True,940,1,12133,trainPhase
6,2,B750,Beta,Beta,True,1045,1,12133,trainPhase
7,2,C1450,Gamma,Gamma,True,1020,1,12133,trainPhase
8,2,C1350,Gamma,Gamma,True,894,1,12133,trainPhase
9,2,B650,Beta,Beta,True,853,1,12133,trainPhase
0,3,B850,Beta,Beta,True,1162,1,12133,trainPhase
1,3,B950,Beta,Gamma,False,1045,1,12133,trainPhase
2,3,C1350,Gamma,Gamma,True,925,1,12133,trainPhase
3,3,B650,Beta,Beta,True,1229,1,12133,trainPhase
4,3,C1150,Gamma,Beta,False,1380,1,12133,trainPhase
5,3,C1450,Gamma,Beta,False,1837,1,12133,trainPhase
6,3,C1050,Gamma,Gamma,True,941,1,12133,trainPhase
7,3,C1250,Gamma,Gamma,True,925,1,12133,trainPhase
8,3,B750,Beta,Beta,True,653,1,12133,trainPhase
9,3,B550,Beta,Beta,True,1359,1,12133,trainPhase
0,4,B650,Beta,Gamma,False,925,1,12133,trainPhase
1,4,C1150,Gamma,Gamma,True,1452,1,12133,trainPhase
2,4,C1450,Gamma,Gamma,True,1207,1,12133,trainPhase
3,4,B950,Beta,Beta,True,1485,1,12133,trainPhase
4,4,C1250,Gamma,Gamma,True,2318,1,12133,trainPhase
5,4,C1350,Gamma,Beta,False,1229,1,12133,trainPhase
6,4,B750,Beta,Gamma,False,803,1,12133,trainPhase
7,4,B550,Beta,Gamma,False,686,1,12133,trainPhase
8,4,B850,Beta,Gamma,False,668,1,12133,trainPhase
9,4,C1050,Gamma,Beta,False,622,1,12133,trainPhase
0,0,B850,Beta,Beta,True,2921,1,12252,trainPhase
1,0,C1350,Gamma,Gamma,True,2443,1,12252,trainPhase
2,0,B750,Beta,Beta,True,1368,1,12252,trainPhase
3,0,C1050,Gamma,Beta,False,2729,1,12252,trainPhase
4,0,C1150,Gamma,Gamma,True,1833,1,12252,trainPhase
5,0,B950,Beta,Beta,True,2158,1,12252,trainPhase
6,0,C1450,Gamma,Gamma,True,1481,1,12252,trainPhase
7,0,B650,Beta,Beta,True,1179,1,12252,trainPhase
8,0,B550,Beta,Gamma,False,1101,1,12252,trainPhase
9,0,C1250,Gamma,Gamma,True,1533,1,12252,trainPhase
0,1,C1450,Gamma,Gamma,True,954,1,12252,trainPhase
1,1,C1150,Gamma,Beta,False,877,1,12252,trainPhase
2,1,C1050,Gamma,Gamma,True,1549,1,12252,trainPhase
3,1,B650,Beta,Beta,True,1259,1,12252,trainPhase
4,1,B750,Beta,Beta,True,1063,1,12252,trainPhase
5,1,B550,Beta,Gamma,False,1555,1,12252,trainPhase
6,1,C1350,Gamma,Gamma,True,1061,1,12252,trainPhase
7,1,B850,Beta,Beta,True,1034,1,12252,trainPhase
8,1,C1250,Gamma,Beta,False,3190,1,12252,trainPhase
9,1,B950,Beta,Beta,True,853,1,12252,trainPhase
0,2,B550,Beta,Beta,True,1117,1,12252,trainPhase
1,2,C1250,Gamma,Gamma,True,1498,1,12252,trainPhase
2,2,C1050,Gamma,Beta,False,2530,1,12252,trainPhase
3,2,C1150,Gamma,Gamma,True,889,1,12252,trainPhase
4,2,C1350,Gamma,Gamma,True,865,1,12252,trainPhase
5,2,C1450,Gamma,Gamma,True,800,1,12252,trainPhase
6,2,B850,Beta,Beta,True,1703,1,12252,trainPhase
7,2,B650,Beta,Beta,True,616,1,12252,trainPhase
8,2,B750,Beta,Beta,True,1189,1,12252,trainPhase
9,2,B950,Beta,Beta,True,1769,1,12252,trainPhase
0,3,C1450,Gamma,Gamma,True,693,1,12252,trainPhase
1,3,B750,Beta,Beta,True,797,1,12252,trainPhase
2,3,C1050,Gamma,Beta,False,1168,1,12252,trainPhase
3,3,C1150,Gamma,Gamma,True,1106,1,12252,trainPhase
4,3,B850,Beta,Beta,True,701,1,12252,trainPhase
5,3,C1350,Gamma,Gamma,True,700,1,12252,trainPhase
6,3,B650,Beta,Beta,True,980,1,12252,trainPhase
7,3,B550,Beta,Beta,True,670,1,12252,trainPhase
8,3,C1250,Gamma,Gamma,True,1079,1,12252,trainPhase
9,3,B950,Beta,Beta,True,893,1,12252,trainPhase
0,4,C1250,Gamma,Gamma,True,783,1,12252,trainPhase
1,4,B650,Beta,Beta,True,945,1,12252,trainPhase
2,4,C1450,Gamma,Gamma,True,788,1,12252,trainPhase
3,4,C1350,Gamma,Gamma,True,1358,1,12252,trainPhase
4,4,B550,Beta,Beta,True,837,1,12252,trainPhase
5,4,C1150,Gamma,Gamma,True,1337,1,12252,trainPhase
6,4,B850,Beta,Beta,True,710,1,12252,trainPhase
7,4,C1050,Gamma,Gamma,True,1094,1,12252,trainPhase
8,4,B750,Beta,Beta,True,1769,1,12252,trainPhase
9,4,B950,Beta,Gamma,False,1122,1,12252,trainPhase
0,0,B550,Beta,Gamma,False,3485,1,12255,trainPhase
1,0,B850,Beta,Gamma,False,1667,1,12255,trainPhase
2,0,B950,Beta,Beta,True,837,1,12255,trainPhase
3,0,C1050,Gamma,Beta,False,1201,1,12255,trainPhase
4,0,B750,Beta,Beta,True,1633,1,12255,trainPhase
5,0,B650,Beta,Beta,True,2004,1,12255,trainPhase
6,0,C1450,Gamma,Gamma,True,1779,1,12255,trainPhase
7,0,C1250,Gamma,Gamma,True,2044,1,12255,trainPhase
8,0,C1150,Gamma,Gamma,True,1268,1,12255,trainPhase
9,0,C1350,Gamma,Beta,False,1940,1,12255,trainPhase
0,1,B850,Beta,Beta,True,1439,1,12255,trainPhase
1,1,B650,Beta,Beta,True,890,1,12255,trainPhase
2,1,C1250,Gamma,Gamma,True,749,1,12255,trainPhase
3,1,B750,Beta,Beta,True,2926,1,12255,trainPhase
4,1,B950,Beta,Gamma,False,781,1,12255,trainPhase
5,1,C1450,Gamma,Gamma,True,773,1,12255,trainPhase
6,1,C1350,Gamma,Gamma,True,825,1,12255,trainPhase
7,1,C1050,Gamma,Beta,False,1118,1,12255,trainPhase
8,1,B550,Beta,Beta,True,1182,1,12255,trainPhase
9,1,C1150,Gamma,Gamma,True,851,1,12255,trainPhase
0,2,C1050,Gamma,Gamma,True,1198,1,12255,trainPhase
1,2,C1150,Gamma,Gamma,True,686,1,12255,trainPhase
2,2,B850,Beta,Gamma,False,981,1,12255,trainPhase
3,2,B650,Beta,Beta,True,966,1,12255,trainPhase
4,2,B750,Beta,Beta,True,1022,1,12255,trainPhase
5,2,C1450,Gamma,Gamma,True,750,1,12255,trainPhase
6,2,B950,Beta,Beta,True,1838,1,12255,trainPhase
7,2,C1350,Gamma,Gamma,True,798,1,12255,trainPhase
8,2,B550,Beta,Beta,True,945,1,12255,trainPhase
9,2,C1250,Gamma,Gamma,True,1045,1,12255,trainPhase
0,3,C1350,Gamma,Gamma,True,838,1,12255,trainPhase
1,3,C1050,Gamma,Gamma,True,1098,1,12255,trainPhase
2,3,B950,Beta,Gamma,False,1189,1,12255,trainPhase
3,3,C1450,Gamma,Gamma,True,670,1,12255,trainPhase
4,3,B650,Beta,Beta,True,974,1,12255,trainPhase
5,3,B750,Beta,Beta,True,678,1,12255,trainPhase
6,3,C1250,Gamma,Gamma,True,1070,1,12255,trainPhase
7,3,C1150,Gamma,Gamma,True,779,1,12255,trainPhase
8,3,B850,Beta,Beta,True,725,1,12255,trainPhase
9,3,B550,Beta,Beta,True,805,1,12255,trainPhase
0,4,B750,Beta,Beta,True,658,1,12255,trainPhase
1,4,B950,Beta,Beta,True,1646,1,12255,trainPhase
2,4,C1450,Gamma,Gamma,True,870,1,12255,trainPhase
3,4,B550,Beta,Beta,True,1302,1,12255,trainPhase
4,4,C1250,Gamma,Gamma,True,974,1,12255,trainPhase
5,4,C1050,Gamma,Gamma,True,646,1,12255,trainPhase
6,4,C1150,Gamma,Gamma,True,572,1,12255,trainPhase
7,4,C1350,Gamma,Gamma,True,982,1,12255,trainPhase
8,4,B650,Beta,Beta,True,726,1,12255,trainPhase
9,4,B850,Beta,Beta,True,679,1,12255,trainPhase
0,0,B550,Beta,Beta,True,5895,1,12258,trainPhase
1,0,B950,Beta,Gamma,False,1907,1,12258,trainPhase
2,0,C1250,Gamma,Beta,False,1830,1,12258,trainPhase
3,0,B650,Beta,Beta,True,2950,1,12258,trainPhase
4,0,B850,Beta,Beta,True,1431,1,12258,trainPhase
5,0,C1450,Gamma,Gamma,True,773,1,12258,trainPhase
6,0,C1050,Gamma,Beta,False,2080,1,12258,trainPhase
7,0,C1350,Gamma,Gamma,True,1535,1,12258,trainPhase
8,0,C1150,Gamma,Gamma,True,1167,1,12258,trainPhase
9,0,B750,Beta,Beta,True,1489,1,12258,trainPhase
0,1,B750,Beta,Beta,True,1071,1,12258,trainPhase
1,1,C1250,Gamma,Gamma,True,925,1,12258,trainPhase
2,1,B550,Beta,Beta,True,1518,1,12258,trainPhase
3,1,C1050,Gamma,Gamma,True,853,1,12258,trainPhase
4,1,B850,Beta,Beta,True,1157,1,12258,trainPhase
5,1,C1450,Gamma,Gamma,True,987,1,12258,trainPhase
6,1,B950,Beta,Gamma,False,2320,1,12258,trainPhase
7,1,C1350,Gamma,Gamma,True,1761,1,12258,trainPhase
8,1,B650,Beta,Beta,True,973,1,12258,trainPhase
9,1,C1150,Gamma,Gamma,True,1093,1,12258,trainPhase
0,2,B750,Beta,Beta,True,710,1,12258,trainPhase
1,2,C1150,Gamma,Gamma,True,886,1,12258,trainPhase
2,2,C1050,Gamma,Gamma,True,2331,1,12258,trainPhase
3,2,C1350,Gamma,Gamma,True,846,1,12258,trainPhase
4,2,B550,Beta,Beta,True,764,1,12258,trainPhase
5,2,C1250,Gamma,Gamma,True,734,1,12258,trainPhase
6,2,C1450,Gamma,Gamma,True,795,1,12258,trainPhase
7,2,B950,Beta,Gamma,False,1834,1,12258,trainPhase
8,2,B650,Beta,Beta,True,922,1,12258,trainPhase
9,2,B850,Beta,Beta,True,726,1,12258,trainPhase
0,3,C1450,Gamma,Gamma,True,913,1,12258,trainPhase
1,3,C1250,Gamma,Gamma,True,1002,1,12258,trainPhase
2,3,B650,Beta,Beta,True,925,1,12258,trainPhase
3,3,B850,Beta,Beta,True,880,1,12258,trainPhase
4,3,B950,Beta,Beta,True,863,1,12258,trainPhase
5,3,C1050,Gamma,Gamma,True,1316,1,12258,trainPhase
6,3,C1350,Gamma,Gamma,True,1281,1,12258,trainPhase
7,3,C1150,Gamma,Gamma,True,1055,1,12258,trainPhase
8,3,B750,Beta,Beta,True,955,1,12258,trainPhase
9,3,B550,Beta,Beta,True,770,1,12258,trainPhase
0,4,B550,Beta,Beta,True,837,1,12258,trainPhase
1,4,C1250,Gamma,Gamma,True,868,1,12258,trainPhase
2,4,C1150,Gamma,Gamma,True,661,1,12258,trainPhase
3,4,B650,Beta,Beta,True,1089,1,12258,trainPhase
4,4,B950,Beta,Beta,True,733,1,12258,trainPhase
5,4,B850,Beta,Gamma,False,582,1,12258,trainPhase
6,4,C1450,Gamma,Gamma,True,693,1,12258,trainPhase
7,4,C1050,Gamma,Gamma,True,694,1,12258,trainPhase
8,4,C1350,Gamma,Gamma,True,723,1,12258,trainPhase
9,4,B750,Beta,Beta,True,767,1,12258,trainPhase
0,0,B650,Beta,Beta,True,7635,1,12275,trainPhase
1,0,B750,Beta,Gamma,False,1682,1,12275,trainPhase
2,0,B950,Beta,Beta,True,1564,1,12275,trainPhase
3,0,C1250,Gamma,Beta,False,1321,1,12275,trainPhase
4,0,B850,Beta,Beta,True,2021,1,12275,trainPhase
5,0,B550,Beta,Beta,True,2245,1,12275,trainPhase
6,0,C1150,Gamma,Gamma,True,1139,1,12275,trainPhase
7,0,C1050,Gamma,Beta,False,1396,1,12275,trainPhase
8,0,C1450,Gamma,Gamma,True,1131,1,12275,trainPhase
9,0,C1350,Gamma,Gamma,True,1248,1,12275,trainPhase
0,1,B950,Beta,Gamma,False,1198,1,12275,trainPhase
1,1,B550,Beta,Beta,True,845,1,12275,trainPhase
2,1,B850,Beta,Beta,True,1126,1,12275,trainPhase
3,1,C1050,Gamma,Beta,False,998,1,12275,trainPhase
4,1,C1450,Gamma,Gamma,True,1022,1,12275,trainPhase
5,1,B750,Beta,Beta,True,1629,1,12275,trainPhase
6,1,C1350,Gamma,Gamma,True,1030,1,12275,trainPhase
7,1,B650,Beta,Beta,True,1183,1,12275,trainPhase
8,1,C1250,Gamma,Gamma,True,1028,1,12275,trainPhase
9,1,C1150,Gamma,Gamma,True,1476,1,12275,trainPhase
0,2,C1450,Gamma,Gamma,True,907,1,12275,trainPhase
1,2,B850,Beta,Beta,True,1124,1,12275,trainPhase
2,2,B750,Beta,Beta,True,1469,1,12275,trainPhase
3,2,B550,Beta,Beta,True,1470,1,12275,trainPhase
4,2,C1150,Gamma,Gamma,True,1070,1,12275,trainPhase
5,2,C1350,Gamma,Gamma,True,900,1,12275,trainPhase
6,2,B950,Beta,Gamma,False,1734,1,12275,trainPhase
7,2,C1050,Gamma,Beta,False,1765,1,12275,trainPhase
8,2,C1250,Gamma,Gamma,True,1622,1,12275,trainPhase
9,2,B650,Beta,Beta,True,1170,1,12275,trainPhase
0,3,B650,Beta,Beta,True,1044,1,12275,trainPhase
1,3,C1150,Gamma,Gamma,True,1197,1,12275,trainPhase
2,3,C1050,Gamma,Gamma,True,1586,1,12275,trainPhase
3,3,B850,Beta,Beta,True,1102,1,12275,trainPhase
4,3,C1450,Gamma,Gamma,True,1101,1,12275,trainPhase
5,3,C1250,Gamma,Gamma,True,1196,1,12275,trainPhase
6,3,C1350,Gamma,Gamma,True,1029,1,12275,trainPhase
7,3,B750,Beta,Beta,True,1128,1,12275,trainPhase
8,3,B950,Beta,Gamma,False,1079,1,12275,trainPhase
9,3,B550,Beta,Beta,True,1174,1,12275,trainPhase
0,4,C1450,Gamma,Gamma,True,1206,1,12275,trainPhase
1,4,B750,Beta,Beta,True,1567,1,12275,trainPhase
2,4,B550,Beta,Beta,True,1149,1,12275,trainPhase
3,4,C1150,Gamma,Gamma,True,1381,1,12275,trainPhase
4,4,C1250,Gamma,Gamma,True,1070,1,12275,trainPhase
5,4,B850,Beta,Gamma,False,1324,1,12275,trainPhase
6,4,C1050,Gamma,Gamma,True,1428,1,12275,trainPhase
7,4,C1350,Gamma,Gamma,True,1381,1,12275,trainPhase
8,4,B950,Beta,Gamma,False,1238,1,12275,trainPhase
9,4,B650,Beta,Beta,True,1126,1,12275,trainPhase
0,0,B850,Beta,Gamma,False,6933,1,12278,trainPhase
1,0,C1150,Gamma,Beta,False,1814,1,12278,trainPhase
2,0,C1250,Gamma,Gamma,True,1135,1,12278,trainPhase
3,0,B650,Beta,Beta,True,726,1,12278,trainPhase
4,0,B750,Beta,Beta,True,1690,1,12278,trainPhase
5,0,C1050,Gamma,Gamma,True,727,1,12278,trainPhase
6,0,C1350,Gamma,Gamma,True,2014,1,12278,trainPhase
7,0,C1450,Gamma,Gamma,True,996,1,12278,trainPhase
8,0,B950,Beta,Gamma,False,1972,1,12278,trainPhase
9,0,B550,Beta,Beta,True,747,1,12278,trainPhase
0,1,B750,Beta,Beta,True,1025,1,12278,trainPhase
1,1,C1150,Gamma,Gamma,True,1080,1,12278,trainPhase
2,1,C1350,Gamma,Gamma,True,576,1,12278,trainPhase
3,1,C1250,Gamma,Gamma,True,520,1,12278,trainPhase
4,1,B550,Beta,Beta,True,1013,1,12278,trainPhase
5,1,B650,Beta,Beta,True,599,1,12278,trainPhase
6,1,B950,Beta,Gamma,False,746,1,12278,trainPhase
7,1,B850,Beta,Beta,True,879,1,12278,trainPhase
8,1,C1450,Gamma,Gamma,True,547,1,12278,trainPhase
9,1,C1050,Gamma,Gamma,True,749,1,12278,trainPhase
0,2,B950,Beta,Gamma,False,1597,1,12278,trainPhase
1,2,B750,Beta,Beta,True,1624,1,12278,trainPhase
2,2,C1350,Gamma,Gamma,True,665,1,12278,trainPhase
3,2,C1450,Gamma,Gamma,True,632,1,12278,trainPhase
4,2,B550,Beta,Beta,True,984,1,12278,trainPhase
5,2,C1150,Gamma,Gamma,True,1477,1,12278,trainPhase
6,2,C1050,Gamma,Gamma,True,1552,1,12278,trainPhase
7,2,B650,Beta,Beta,True,911,1,12278,trainPhase
8,2,B850,Beta,Gamma,False,685,1,12278,trainPhase
9,2,C1250,Gamma,Gamma,True,854,1,12278,trainPhase
0,3,C1450,Gamma,Gamma,True,807,1,12278,trainPhase
1,3,C1050,Gamma,Gamma,True,1278,1,12278,trainPhase
2,3,C1350,Gamma,Gamma,True,642,1,12278,trainPhase
3,3,B650,Beta,Beta,True,726,1,12278,trainPhase
4,3,B750,Beta,Beta,True,530,1,12278,trainPhase
5,3,B950,Beta,Gamma,False,982,1,12278,trainPhase
6,3,B550,Beta,Beta,True,1385,1,12278,trainPhase
7,3,C1250,Gamma,Gamma,True,1188,1,12278,trainPhase
8,3,C1150,Gamma,Gamma,True,715,1,12278,trainPhase
9,3,B850,Beta,Beta,True,917,1,12278,trainPhase
0,4,C1150,Gamma,Gamma,True,922,1,12278,trainPhase
1,4,B950,Beta,Beta,True,932,1,12278,trainPhase
2,4,B850,Beta,Beta,True,1316,1,12278,trainPhase
3,4,B750,Beta,Beta,True,699,1,12278,trainPhase
4,4,C1350,Gamma,Gamma,True,1115,1,12278,trainPhase
5,4,B550,Beta,Beta,True,658,1,12278,trainPhase
6,4,C1250,Gamma,Gamma,True,780,1,12278,trainPhase
7,4,C1050,Gamma,Beta,False,3158,1,12278,trainPhase
8,4,B650,Beta,Beta,True,697,1,12278,trainPhase
9,4,C1450,Gamma,Gamma,True,1341,1,12278,trainPhase
0,0,B850,Beta,Beta,True,5258,1,12283,trainPhase
1,0,C1450,Gamma,Gamma,True,4242,1,12283,trainPhase
2,0,C1250,Gamma,Beta,False,2243,1,12283,trainPhase
3,0,C1350,Gamma,Gamma,True,1352,1,12283,trainPhase
4,0,C1050,Gamma,Beta,False,1417,1,12283,trainPhase
5,0,B650,Beta,Beta,True,1127,1,12283,trainPhase
6,0,B750,Beta,Beta,True,1144,1,12283,trainPhase
7,0,B950,Beta,Beta,True,2617,1,12283,trainPhase
8,0,C1150,Gamma,Gamma,True,1118,1,12283,trainPhase
9,0,B550,Beta,Beta,True,1220,1,12283,trainPhase
0,1,C1350,Gamma,Gamma,True,893,1,12283,trainPhase
1,1,C1450,Gamma,Gamma,True,994,1,12283,trainPhase
2,1,B750,Beta,Beta,True,963,1,12283,trainPhase
3,1,B850,Beta,Beta,True,877,1,12283,trainPhase
4,1,C1150,Gamma,Gamma,True,1453,1,12283,trainPhase
5,1,C1050,Gamma,Gamma,True,1598,1,12283,trainPhase
6,1,B950,Beta,Beta,True,1377,1,12283,trainPhase
7,1,B550,Beta,Beta,True,1045,1,12283,trainPhase
8,1,B650,Beta,Beta,True,866,1,12283,trainPhase
9,1,C1250,Gamma,Gamma,True,1016,1,12283,trainPhase
0,2,B950,Beta,Beta,True,4427,1,12283,trainPhase
1,2,C1250,Gamma,Gamma,True,767,1,12283,trainPhase
2,2,B850,Beta,Beta,True,835,1,12283,trainPhase
3,2,C1350,Gamma,Gamma,True,683,1,12283,trainPhase
4,2,B750,Beta,Beta,True,682,1,12283,trainPhase
5,2,C1150,Gamma,Gamma,True,690,1,12283,trainPhase
6,2,C1050,Gamma,Gamma,True,2534,1,12283,trainPhase
7,2,C1450,Gamma,Gamma,True,926,1,12283,trainPhase
8,2,B550,Beta,Beta,True,927,1,12283,trainPhase
9,2,B650,Beta,Beta,True,894,1,12283,trainPhase
0,3,C1450,Gamma,Gamma,True,1045,1,12283,trainPhase
1,3,C1250,Gamma,Gamma,True,1051,1,12283,trainPhase
2,3,C1050,Gamma,Beta,False,1180,1,12283,trainPhase
3,3,B650,Beta,Beta,True,781,1,12283,trainPhase
4,3,C1150,Gamma,Gamma,True,862,1,12283,trainPhase
5,3,B850,Beta,Gamma,False,1324,1,12283,trainPhase
6,3,C1350,Gamma,Gamma,True,1459,1,12283,trainPhase
7,3,B950,Beta,Beta,True,838,1,12283,trainPhase
8,3,B750,Beta,Beta,True,896,1,12283,trainPhase
9,3,B550,Beta,Beta,True,859,1,12283,trainPhase
0,4,B850,Beta,Beta,True,1430,1,12283,trainPhase
1,4,C1050,Gamma,Gamma,True,2061,1,12283,trainPhase
2,4,B950,Beta,Beta,True,1426,1,12283,trainPhase
3,4,B750,Beta,Beta,True,2334,1,12283,trainPhase
4,4,C1450,Gamma,Gamma,True,950,1,12283,trainPhase
5,4,B650,Beta,Beta,True,3006,1,12283,trainPhase
6,4,C1150,Gamma,Gamma,True,1373,1,12283,trainPhase
7,4,C1250,Gamma,Gamma,True,1029,1,12283,trainPhase
8,4,C1350,Gamma,Gamma,True,808,1,12283,trainPhase
9,4,B550,Beta,Beta,True,788,1,12283,trainPhase
0,0,B850,Beta,Gamma,False,2914,1,12286,trainPhase
1,0,C1050,Gamma,Beta,False,2237,1,12286,trainPhase
2,0,B750,Beta,Beta,True,2861,1,12286,trainPhase
3,0,C1150,Gamma,Gamma,True,1646,1,12286,trainPhase
4,0,B650,Beta,Beta,True,1416,1,12286,trainPhase
5,0,B550,Beta,Beta,True,888,1,12286,trainPhase
6,0,C1250,Gamma,Gamma,True,1085,1,12286,trainPhase
7,0,C1350,Gamma,Gamma,True,857,1,12286,trainPhase
8,0,B950,Beta,Beta,True,1006,1,12286,trainPhase
9,0,C1450,Gamma,Gamma,True,1014,1,12286,trainPhase
0,1,B850,Beta,Beta,True,526,1,12286,trainPhase
1,1,C1150,Gamma,Beta,False,939,1,12286,trainPhase
2,1,B650,Beta,Beta,True,1037,1,12286,trainPhase
3,1,C1450,Gamma,Gamma,True,1139,1,12286,trainPhase
4,1,B950,Beta,Gamma,False,1734,1,12286,trainPhase
5,1,B550,Beta,Beta,True,1117,1,12286,trainPhase
6,1,C1050,Gamma,Gamma,True,1465,1,12286,trainPhase
7,1,C1350,Gamma,Gamma,True,1001,1,12286,trainPhase
8,1,C1250,Gamma,Gamma,True,1261,1,12286,trainPhase
9,1,B750,Beta,Beta,True,1437,1,12286,trainPhase
0,2,C1250,Gamma,Gamma,True,1169,1,12286,trainPhase
1,2,C1050,Gamma,Gamma,True,1409,1,12286,trainPhase
2,2,B550,Beta,Beta,True,1740,1,12286,trainPhase
3,2,B950,Beta,Gamma,False,1412,1,12286,trainPhase
4,2,C1150,Gamma,Gamma,True,2630,1,12286,trainPhase
5,2,C1350,Gamma,Gamma,True,877,1,12286,trainPhase
6,2,B650,Beta,Beta,True,1318,1,12286,trainPhase
7,2,C1450,Gamma,Gamma,True,1081,1,12286,trainPhase
8,2,B750,Beta,Gamma,False,2747,1,12286,trainPhase
9,2,B850,Beta,Gamma,False,1243,1,12286,trainPhase
0,3,B650,Beta,Beta,True,1332,1,12286,trainPhase
1,3,B750,Beta,Beta,True,1307,1,12286,trainPhase
2,3,C1250,Gamma,Gamma,True,1144,1,12286,trainPhase
3,3,C1150,Gamma,Gamma,True,1189,1,12286,trainPhase
4,3,B950,Beta,Gamma,False,2109,1,12286,trainPhase
5,3,C1450,Gamma,Gamma,True,1187,1,12286,trainPhase
6,3,C1350,Gamma,Gamma,True,962,1,12286,trainPhase
7,3,C1050,Gamma,Gamma,True,1563,1,12286,trainPhase
8,3,B850,Beta,Gamma,False,1713,1,12286,trainPhase
9,3,B550,Beta,Beta,True,1573,1,12286,trainPhase
0,4,B650,Beta,Beta,True,1101,1,12286,trainPhase
1,4,B950,Beta,Beta,True,1038,1,12286,trainPhase
2,4,B550,Beta,Beta,True,1126,1,12286,trainPhase
3,4,C1150,Gamma,Gamma,True,977,1,12286,trainPhase
4,4,C1450,Gamma,Gamma,True,867,1,12286,trainPhase
5,4,C1350,Gamma,Gamma,True,1795,1,12286,trainPhase
6,4,B850,Beta,Beta,True,1123,1,12286,trainPhase
7,4,C1050,Gamma,Gamma,True,2088,1,12286,trainPhase
8,4,B750,Beta,Beta,True,1287,1,12286,trainPhase
9,4,C1250,Gamma,Gamma,True,907,1,12286,trainPhase
0,0,C1250,Gamma,Gamma,True,10378,1,12289,trainPhase
1,0,B850,Beta,Beta,True,4133,1,12289,trainPhase
2,0,B550,Beta,Beta,True,5360,1,12289,trainPhase
3,0,C1450,Gamma,Gamma,True,5559,1,12289,trainPhase
4,0,B750,Beta,Gamma,False,5109,1,12289,trainPhase
5,0,B650,Beta,Beta,True,3016,1,12289,trainPhase
6,0,C1050,Gamma,Beta,False,2338,1,12289,trainPhase
7,0,C1150,Gamma,Beta,False,2128,1,12289,trainPhase
8,0,C1350,Gamma,Gamma,True,2747,1,12289,trainPhase
9,0,B950,Beta,Gamma,False,2460,1,12289,trainPhase
0,1,B850,Beta,Beta,True,1736,1,12289,trainPhase
1,1,C1150,Gamma,Gamma,True,1707,1,12289,trainPhase
2,1,B950,Beta,Beta,True,1770,1,12289,trainPhase
3,1,B550,Beta,Beta,True,2617,1,12289,trainPhase
4,1,C1050,Gamma,Gamma,True,2589,1,12289,trainPhase
5,1,C1250,Gamma,Gamma,True,1046,1,12289,trainPhase
6,1,C1350,Gamma,Gamma,True,997,1,12289,trainPhase
7,1,B650,Beta,Beta,True,1175,1,12289,trainPhase
8,1,C1450,Gamma,Gamma,True,996,1,12289,trainPhase
9,1,B750,Beta,Beta,True,1395,1,12289,trainPhase
0,2,B650,Beta,Beta,True,935,1,12289,trainPhase
1,2,B750,Beta,Beta,True,1081,1,12289,trainPhase
2,2,C1250,Gamma,Gamma,True,974,1,12289,trainPhase
3,2,B950,Beta,Gamma,False,2083,1,12289,trainPhase
4,2,B850,Beta,Beta,True,1109,1,12289,trainPhase
5,2,B550,Beta,Beta,True,921,1,12289,trainPhase
6,2,C1150,Gamma,Gamma,True,2815,1,12289,trainPhase
7,2,C1050,Gamma,Gamma,True,926,1,12289,trainPhase
8,2,C1450,Gamma,Gamma,True,898,1,12289,trainPhase
9,2,C1350,Gamma,Gamma,True,855,1,12289,trainPhase
0,3,C1250,Gamma,Gamma,True,853,1,12289,trainPhase
1,3,C1150,Gamma,Gamma,True,1284,1,12289,trainPhase
2,3,B950,Beta,Gamma,False,1304,1,12289,trainPhase
3,3,C1450,Gamma,Gamma,True,910,1,12289,trainPhase
4,3,B550,Beta,Beta,True,963,1,12289,trainPhase
5,3,B650,Beta,Beta,True,850,1,12289,trainPhase
6,3,C1050,Gamma,Beta,False,1756,1,12289,trainPhase
7,3,C1350,Gamma,Gamma,True,859,1,12289,trainPhase
8,3,B750,Beta,Beta,True,1079,1,12289,trainPhase
9,3,B850,Beta,Beta,True,1033,1,12289,trainPhase
0,4,B950,Beta,Beta,True,1292,1,12289,trainPhase
1,4,B550,Beta,Beta,True,963,1,12289,trainPhase
2,4,B750,Beta,Beta,True,799,1,12289,trainPhase
3,4,C1350,Gamma,Gamma,True,1202,1,12289,trainPhase
4,4,B850,Beta,Beta,True,5663,1,12289,trainPhase
5,4,C1050,Gamma,Beta,False,3889,1,12289,trainPhase
6,4,C1250,Gamma,Gamma,True,1108,1,12289,trainPhase
7,4,C1450,Gamma,Gamma,True,1058,1,12289,trainPhase
8,4,B650,Beta,Beta,True,4246,1,12289,trainPhase
9,4,C1150,Gamma,Gamma,True,782,1,12289,trainPhase
0,0,B850,Beta,Beta,True,5765,1,12298,trainPhase
1,0,C1250,Gamma,Gamma,True,3269,1,12298,trainPhase
2,0,B950,Beta,Beta,True,1674,1,12298,trainPhase
3,0,C1050,Gamma,Gamma,True,1311,1,12298,trainPhase
4,0,B550,Beta,Gamma,False,1682,1,12298,trainPhase
5,0,C1350,Gamma,Gamma,True,1442,1,12298,trainPhase
6,0,B750,Beta,Beta,True,2858,1,12298,trainPhase
7,0,C1150,Gamma,Gamma,True,1620,1,12298,trainPhase
8,0,B650,Beta,Beta,True,1836,1,12298,trainPhase
9,0,C1450,Gamma,Gamma,True,1175,1,12298,trainPhase
0,1,C1450,Gamma,Gamma,True,1197,1,12298,trainPhase
1,1,C1350,Gamma,Gamma,True,886,1,12298,trainPhase
2,1,B750,Beta,Beta,True,940,1,12298,trainPhase
3,1,C1050,Gamma,Gamma,True,1534,1,12298,trainPhase
4,1,C1150,Gamma,Gamma,True,1484,1,12298,trainPhase
5,1,B650,Beta,Beta,True,694,1,12298,trainPhase
6,1,B850,Beta,Beta,True,861,1,12298,trainPhase
7,1,B550,Beta,Beta,True,861,1,12298,trainPhase
8,1,C1250,Gamma,Gamma,True,983,1,12298,trainPhase
9,1,B950,Beta,Gamma,False,2970,1,12298,trainPhase
0,2,B850,Beta,Beta,True,840,1,12298,trainPhase
1,2,B650,Beta,Beta,True,935,1,12298,trainPhase
2,2,B750,Beta,Beta,True,685,1,12298,trainPhase
3,2,C1050,Gamma,Gamma,True,828,1,12298,trainPhase
4,2,B950,Beta,Beta,True,694,1,12298,trainPhase
5,2,B550,Beta,Beta,True,1158,1,12298,trainPhase
6,2,C1250,Gamma,Gamma,True,940,1,12298,trainPhase
7,2,C1350,Gamma,Gamma,True,960,1,12298,trainPhase
8,2,C1150,Gamma,Gamma,True,1180,1,12298,trainPhase
9,2,C1450,Gamma,Gamma,True,972,1,12298,trainPhase
0,3,B650,Beta,Beta,True,1262,1,12298,trainPhase
1,3,C1150,Gamma,Gamma,True,1441,1,12298,trainPhase
2,3,B950,Beta,Gamma,False,1638,1,12298,trainPhase
3,3,B550,Beta,Beta,True,888,1,12298,trainPhase
4,3,C1450,Gamma,Gamma,True,766,1,12298,trainPhase
5,3,C1050,Gamma,Gamma,True,1606,1,12298,trainPhase
6,3,C1350,Gamma,Gamma,True,973,1,12298,trainPhase
7,3,C1250,Gamma,Gamma,True,1157,1,12298,trainPhase
8,3,B750,Beta,Beta,True,893,1,12298,trainPhase
9,3,B850,Beta,Beta,True,1238,1,12298,trainPhase
0,4,B650,Beta,Beta,True,765,1,12298,trainPhase
1,4,B750,Beta,Beta,True,733,1,12298,trainPhase
2,4,B550,Beta,Beta,True,769,1,12298,trainPhase
3,4,C1250,Gamma,Gamma,True,1125,1,12298,trainPhase
4,4,C1350,Gamma,Gamma,True,758,1,12298,trainPhase
5,4,C1450,Gamma,Gamma,True,701,1,12298,trainPhase
6,4,C1150,Gamma,Gamma,True,803,1,12298,trainPhase
7,4,B850,Beta,Beta,True,1215,1,12298,trainPhase
8,4,C1050,Gamma,Gamma,True,1087,1,12298,trainPhase
9,4,B950,Beta,Beta,True,933,1,12298,trainPhase
0,0,C1450,Gamma,Beta,False,6350,1,12136,trainPhase
1,0,C1150,Gamma,Beta,False,3154,1,12136,trainPhase
2,0,C1350,Gamma,Gamma,True,1329,1,12136,trainPhase
3,0,B950,Beta,Gamma,False,1081,1,12136,trainPhase
4,0,B550,Beta,Beta,True,1346,1,12136,trainPhase
5,0,C1250,Gamma,Gamma,True,1453,1,12136,trainPhase
6,0,B850,Beta,Beta,True,1084,1,12136,trainPhase
7,0,B750,Beta,Beta,True,916,1,12136,trainPhase
8,0,C1050,Gamma,Beta,False,1216,1,12136,trainPhase
9,0,B650,Beta,Beta,True,2317,1,12136,trainPhase
0,1,B750,Beta,Beta,True,936,1,12136,trainPhase
1,1,B950,Beta,Gamma,False,1088,1,12136,trainPhase
2,1,C1150,Gamma,Gamma,True,1502,1,12136,trainPhase
3,1,C1450,Gamma,Gamma,True,875,1,12136,trainPhase
4,1,C1350,Gamma,Gamma,True,990,1,12136,trainPhase
5,1,C1250,Gamma,Gamma,True,798,1,12136,trainPhase
6,1,B550,Beta,Beta,True,926,1,12136,trainPhase
7,1,B850,Beta,Beta,True,1309,1,12136,trainPhase
8,1,B650,Beta,Beta,True,800,1,12136,trainPhase
9,1,C1050,Gamma,Beta,False,1550,1,12136,trainPhase
0,2,B950,Beta,Beta,True,1209,1,12136,trainPhase
1,2,C1150,Gamma,Gamma,True,1030,1,12136,trainPhase
2,2,B650,Beta,Beta,True,841,1,12136,trainPhase
3,2,B850,Beta,Beta,True,1484,1,12136,trainPhase
4,2,C1050,Gamma,Gamma,True,1022,1,12136,trainPhase
5,2,C1450,Gamma,Gamma,True,954,1,12136,trainPhase
6,2,B550,Beta,Beta,True,928,1,12136,trainPhase
7,2,C1250,Gamma,Gamma,True,741,1,12136,trainPhase
8,2,C1350,Gamma,Gamma,True,695,1,12136,trainPhase
9,2,B750,Beta,Beta,True,1014,1,12136,trainPhase
0,3,C1250,Gamma,Gamma,True,1253,1,12136,trainPhase
1,3,C1150,Gamma,Gamma,True,901,1,12136,trainPhase
2,3,B550,Beta,Beta,True,982,1,12136,trainPhase
3,3,C1350,Gamma,Gamma,True,820,1,12136,trainPhase
4,3,B750,Beta,Beta,True,1127,1,12136,trainPhase
5,3,B950,Beta,Gamma,False,911,1,12136,trainPhase
6,3,C1450,Gamma,Gamma,True,2513,1,12136,trainPhase
7,3,B850,Beta,Beta,True,914,1,12136,trainPhase
8,3,B650,Beta,Beta,True,858,1,12136,trainPhase
9,3,C1050,Gamma,Gamma,True,835,1,12136,trainPhase
0,4,C1050,Gamma,Gamma,True,801,1,12136,trainPhase
1,4,B750,Beta,Beta,True,1255,1,12136,trainPhase
2,4,C1150,Gamma,Gamma,True,854,1,12136,trainPhase
3,4,C1250,Gamma,Gamma,True,909,1,12136,trainPhase
4,4,B850,Beta,Beta,True,1166,1,12136,trainPhase
5,4,C1450,Gamma,Gamma,True,806,1,12136,trainPhase
6,4,C1350,Gamma,Gamma,True,734,1,12136,trainPhase
7,4,B550,Beta,Beta,True,838,1,12136,trainPhase
8,4,B950,Beta,Beta,True,2198,1,12136,trainPhase
9,4,B650,Beta,Beta,True,822,1,12136,trainPhase
0,0,C1350,Gamma,Gamma,True,4741,1,12313,trainPhase
1,0,B650,Beta,Gamma,False,3094,1,12313,trainPhase
2,0,C1050,Gamma,Gamma,True,1282,1,12313,trainPhase
3,0,B750,Beta,Beta,True,923,1,12313,trainPhase
4,0,C1150,Gamma,Gamma,True,1401,1,12313,trainPhase
5,0,B950,Beta,Gamma,False,1413,1,12313,trainPhase
6,0,B550,Beta,Beta,True,1804,1,12313,trainPhase
7,0,C1250,Gamma,Gamma,True,958,1,12313,trainPhase
8,0,B850,Beta,Gamma,False,1369,1,12313,trainPhase
9,0,C1450,Gamma,Gamma,True,1309,1,12313,trainPhase
0,1,C1250,Gamma,Gamma,True,1863,1,12313,trainPhase
1,1,B950,Beta,Gamma,False,791,1,12313,trainPhase
2,1,C1150,Gamma,Gamma,True,1153,1,12313,trainPhase
3,1,C1350,Gamma,Gamma,True,1064,1,12313,trainPhase
4,1,B650,Beta,Beta,True,991,1,12313,trainPhase
5,1,B850,Beta,Beta,True,2303,1,12313,trainPhase
6,1,B550,Beta,Beta,True,880,1,12313,trainPhase
7,1,C1050,Gamma,Gamma,True,557,1,12313,trainPhase
8,1,B750,Beta,Beta,True,982,1,12313,trainPhase
9,1,C1450,Gamma,Gamma,True,717,1,12313,trainPhase
0,2,C1150,Gamma,Beta,False,716,1,12313,trainPhase
1,2,B950,Beta,Gamma,False,1176,1,12313,trainPhase
2,2,C1250,Gamma,Gamma,True,885,1,12313,trainPhase
3,2,C1450,Gamma,Gamma,True,908,1,12313,trainPhase
4,2,B850,Beta,Gamma,False,1198,1,12313,trainPhase
5,2,C1350,Gamma,Gamma,True,1013,1,12313,trainPhase
6,2,C1050,Gamma,Gamma,True,1150,1,12313,trainPhase
7,2,B650,Beta,Beta,True,1181,1,12313,trainPhase
8,2,B550,Beta,Beta,True,822,1,12313,trainPhase
9,2,B750,Beta,Beta,True,1364,1,12313,trainPhase
0,3,B650,Beta,Beta,True,733,1,12313,trainPhase
1,3,C1150,Gamma,Gamma,True,901,1,12313,trainPhase
2,3,C1450,Gamma,Gamma,True,1003,1,12313,trainPhase
3,3,C1350,Gamma,Gamma,True,627,1,12313,trainPhase
4,3,B950,Beta,Gamma,False,1365,1,12313,trainPhase
5,3,B550,Beta,Beta,True,935,1,12313,trainPhase
6,3,C1050,Gamma,Gamma,True,789,1,12313,trainPhase
7,3,B750,Beta,Beta,True,1259,1,12313,trainPhase
8,3,C1250,Gamma,Gamma,True,597,1,12313,trainPhase
9,3,B850,Beta,Beta,True,733,1,12313,trainPhase
0,4,B650,Beta,Gamma,False,461,1,12313,trainPhase
1,4,C1450,Gamma,Gamma,True,1214,1,12313,trainPhase
2,4,B950,Beta,Beta,True,557,1,12313,trainPhase
3,4,B550,Beta,Beta,True,862,1,12313,trainPhase
4,4,C1150,Gamma,Gamma,True,517,1,12313,trainPhase
5,4,C1350,Gamma,Gamma,True,814,1,12313,trainPhase
6,4,C1250,Gamma,Gamma,True,756,1,12313,trainPhase
7,4,C1050,Gamma,Gamma,True,822,1,12313,trainPhase
8,4,B750,Beta,Beta,True,1036,1,12313,trainPhase
9,4,B850,Beta,Gamma,False,558,1,12313,trainPhase
0,0,C1250,Gamma,Beta,False,5379,1,12317,trainPhase
1,0,C1050,Gamma,Beta,False,2417,1,12317,trainPhase
2,0,B950,Beta,Gamma,False,1979,1,12317,trainPhase
3,0,B650,Beta,Beta,True,4234,1,12317,trainPhase
4,0,B850,Beta,Gamma,False,2099,1,12317,trainPhase
5,0,B550,Beta,Beta,True,2932,1,12317,trainPhase
6,0,B750,Beta,Gamma,False,1512,1,12317,trainPhase
7,0,C1450,Gamma,Gamma,True,1619,1,12317,trainPhase
8,0,C1150,Gamma,Beta,False,3612,1,12317,trainPhase
9,0,C1350,Gamma,Beta,False,3230,1,12317,trainPhase
0,1,B750,Beta,Beta,True,1646,1,12317,trainPhase
1,1,C1450,Gamma,Gamma,True,1147,1,12317,trainPhase
2,1,B950,Beta,Gamma,False,2404,1,12317,trainPhase
3,1,C1050,Gamma,Beta,False,1795,1,12317,trainPhase
4,1,C1150,Gamma,Gamma,True,1150,1,12317,trainPhase
5,1,B650,Beta,Beta,True,4603,1,12317,trainPhase
6,1,C1250,Gamma,Gamma,True,1108,1,12317,trainPhase
7,1,B850,Beta,Gamma,False,3178,1,12317,trainPhase
8,1,C1350,Gamma,Gamma,True,1028,1,12317,trainPhase
9,1,B550,Beta,Beta,True,1150,1,12317,trainPhase
0,2,C1350,Gamma,Gamma,True,1117,1,12317,trainPhase
1,2,B850,Beta,Beta,True,1188,1,12317,trainPhase
2,2,C1150,Gamma,Gamma,True,1131,1,12317,trainPhase
3,2,C1050,Gamma,Beta,False,1615,1,12317,trainPhase
4,2,B950,Beta,Gamma,False,1782,1,12317,trainPhase
5,2,B650,Beta,Beta,True,974,1,12317,trainPhase
6,2,B550,Beta,Beta,True,1145,1,12317,trainPhase
7,2,C1250,Gamma,Gamma,True,998,1,12317,trainPhase
8,2,B750,Beta,Beta,True,1238,1,12317,trainPhase
9,2,C1450,Gamma,Gamma,True,984,1,12317,trainPhase
0,3,C1350,Gamma,Beta,False,813,1,12317,trainPhase
1,3,B850,Beta,Gamma,False,885,1,12317,trainPhase
2,3,C1450,Gamma,Gamma,True,1335,1,12317,trainPhase
3,3,B950,Beta,Gamma,False,897,1,12317,trainPhase
4,3,B750,Beta,Beta,True,1789,1,12317,trainPhase
5,3,C1050,Gamma,Gamma,True,1417,1,12317,trainPhase
6,3,C1250,Gamma,Gamma,True,1103,1,12317,trainPhase
7,3,C1150,Gamma,Gamma,True,1255,1,12317,trainPhase
8,3,B650,Beta,Beta,True,1281,1,12317,trainPhase
9,3,B550,Beta,Beta,True,1638,1,12317,trainPhase
0,4,B750,Beta,Gamma,False,1372,1,12317,trainPhase
1,4,C1250,Gamma,Gamma,True,1036,1,12317,trainPhase
2,4,B950,Beta,Gamma,False,1358,1,12317,trainPhase
3,4,B550,Beta,Beta,True,1430,1,12317,trainPhase
4,4,B850,Beta,Gamma,False,1380,1,12317,trainPhase
5,4,C1150,Gamma,Gamma,True,759,1,12317,trainPhase
6,4,C1350,Gamma,Gamma,True,885,1,12317,trainPhase
7,4,C1050,Gamma,Gamma,True,878,1,12317,trainPhase
8,4,C1450,Gamma,Gamma,True,1062,1,12317,trainPhase
9,4,B650,Beta,Beta,True,2349,1,12317,trainPhase
0,0,C1250,Gamma,Beta,False,4192,1,12320,trainPhase
1,0,C1050,Gamma,Gamma,True,2110,1,12320,trainPhase
2,0,C1150,Gamma,Gamma,True,1716,1,12320,trainPhase
3,0,B950,Beta,Gamma,False,2355,1,12320,trainPhase
4,0,B550,Beta,Beta,True,1639,1,12320,trainPhase
5,0,C1450,Gamma,Gamma,True,1372,1,12320,trainPhase
6,0,B650,Beta,Beta,True,888,1,12320,trainPhase
7,0,B750,Beta,Beta,True,970,1,12320,trainPhase
8,0,B850,Beta,Beta,True,5773,1,12320,trainPhase
9,0,C1350,Gamma,Gamma,True,1200,1,12320,trainPhase
0,1,B850,Beta,Beta,True,2829,1,12320,trainPhase
1,1,C1050,Gamma,Gamma,True,1174,1,12320,trainPhase
2,1,B950,Beta,Gamma,False,2940,1,12320,trainPhase
3,1,B550,Beta,Beta,True,1010,1,12320,trainPhase
4,1,B650,Beta,Beta,True,896,1,12320,trainPhase
5,1,C1450,Gamma,Gamma,True,898,1,12320,trainPhase
6,1,C1150,Gamma,Gamma,True,891,1,12320,trainPhase
7,1,C1350,Gamma,Gamma,True,933,1,12320,trainPhase
8,1,B750,Beta,Beta,True,1093,1,12320,trainPhase
9,1,C1250,Gamma,Gamma,True,937,1,12320,trainPhase
0,2,C1150,Gamma,Gamma,True,1090,1,12320,trainPhase
1,2,B650,Beta,Beta,True,1160,1,12320,trainPhase
2,2,B750,Beta,Beta,True,1073,1,12320,trainPhase
3,2,C1450,Gamma,Gamma,True,883,1,12320,trainPhase
4,2,C1350,Gamma,Gamma,True,826,1,12320,trainPhase
5,2,C1250,Gamma,Gamma,True,748,1,12320,trainPhase
6,2,B950,Beta,Gamma,False,2825,1,12320,trainPhase
7,2,B550,Beta,Beta,True,1006,1,12320,trainPhase
8,2,B850,Beta,Beta,True,884,1,12320,trainPhase
9,2,C1050,Gamma,Gamma,True,1378,1,12320,trainPhase
0,3,C1350,Gamma,Gamma,True,1054,1,12320,trainPhase
1,3,C1050,Gamma,Gamma,True,1617,1,12320,trainPhase
2,3,B750,Beta,Beta,True,1094,1,12320,trainPhase
3,3,B950,Beta,Beta,True,1286,1,12320,trainPhase
4,3,C1250,Gamma,Gamma,True,1054,1,12320,trainPhase
5,3,B550,Beta,Beta,True,1023,1,12320,trainPhase
6,3,B650,Beta,Beta,True,687,1,12320,trainPhase
7,3,C1150,Gamma,Gamma,True,824,1,12320,trainPhase
8,3,C1450,Gamma,Gamma,True,613,1,12320,trainPhase
9,3,B850,Beta,Beta,True,996,1,12320,trainPhase
0,4,B650,Beta,Beta,True,646,1,12320,trainPhase
1,4,B550,Beta,Beta,True,578,1,12320,trainPhase
2,4,B950,Beta,Beta,True,3732,1,12320,trainPhase
3,4,C1250,Gamma,Gamma,True,733,1,12320,trainPhase
4,4,C1050,Gamma,Gamma,True,1213,1,12320,trainPhase
5,4,C1150,Gamma,Gamma,True,789,1,12320,trainPhase
6,4,C1450,Gamma,Gamma,True,556,1,12320,trainPhase
7,4,B850,Beta,Beta,True,970,1,12320,trainPhase
8,4,C1350,Gamma,Gamma,True,696,1,12320,trainPhase
9,4,B750,Beta,Beta,True,678,1,12320,trainPhase
