trial,block,stimId,category,response,rt,condition,id,phase
0,0,A350,Alpha,a,2864,1,11296,study
1,0,A50,Alpha,a,2426,1,11296,study
2,0,A250,Alpha,a,1162,1,11296,study
3,0,A450,Alpha,a,1817,1,11296,study
4,0,A150,Alpha,a,1559,1,11296,study
0,1,A50,Alpha,a,1167,1,11296,study
1,1,A250,Alpha,a,1169,1,11296,study
2,1,A150,Alpha,a,1238,1,11296,study
3,1,A350,Alpha,a,1062,1,11296,study
4,1,A450,Alpha,a,1283,1,11296,study
0,2,A50,Alpha,a,1744,1,11296,study
1,2,A250,Alpha,a,1512,1,11296,study
2,2,A350,Alpha,a,1362,1,11296,study
3,2,A150,Alpha,a,1162,1,11296,study
4,2,A450,Alpha,a,628,1,11296,study
0,3,A350,Alpha,a,755,1,11296,study
1,3,A50,Alpha,a,726,1,11296,study
2,3,A450,Alpha,a,1382,1,11296,study
3,3,A150,Alpha,a,1239,1,11296,study
4,3,A250,Alpha,a,901,1,11296,study
0,4,A450,Alpha,a,559,1,11296,study
1,4,A250,Alpha,a,568,1,11296,study
2,4,A350,Alpha,a,560,1,11296,study
3,4,A50,Alpha,a,665,1,11296,study
4,4,A150,Alpha,a,519,1,11296,study
0,0,A450,Alpha,a,5767,1,12139,study
1,0,A350,Alpha,a,1692,1,12139,study
2,0,A250,Alpha,a,1080,1,12139,study
3,0,A50,Alpha,a,723,1,12139,study
4,0,A150,Alpha,a,2061,1,12139,study
0,1,A450,Alpha,a,1401,1,12139,study
1,1,A250,Alpha,a,1031,1,12139,study
2,1,A350,Alpha,a,1799,1,12139,study
3,1,A150,Alpha,a,1933,1,12139,study
4,1,A50,Alpha,a,745,1,12139,study
0,2,A350,Alpha,a,2505,1,12139,study
1,2,A150,Alpha,a,538,1,12139,study
2,2,A450,Alpha,a,541,1,12139,study
3,2,A250,Alpha,a,950,1,12139,study
4,2,A50,Alpha,a,1230,1,12139,study
0,3,A250,Alpha,a,5437,1,12139,study
1,3,A450,Alpha,a,1746,1,12139,study
2,3,A50,Alpha,a,4586,1,12139,study
3,3,A150,Alpha,a,5562,1,12139,study
4,3,A350,Alpha,a,1583,1,12139,study
0,4,A50,Alpha,a,2080,1,12139,study
1,4,A250,Alpha,a,13577,1,12139,study
2,4,A350,Alpha,a,2489,1,12139,study
3,4,A450,Alpha,a,3332,1,12139,study
4,4,A150,Alpha,a,5902,1,12139,study
0,0,A50,Alpha,a,4074,1,12142,study
1,0,A250,Alpha,a,2233,1,12142,study
2,0,A350,Alpha,a,1183,1,12142,study
3,0,A450,Alpha,a,1039,1,12142,study
4,0,A150,Alpha,a,2318,1,12142,study
0,1,A150,Alpha,a,1350,1,12142,study
1,1,A350,Alpha,a,2075,1,12142,study
2,1,A250,Alpha,a,882,1,12142,study
3,1,A450,Alpha,a,1151,1,12142,study
4,1,A50,Alpha,a,1072,1,12142,study
0,2,A50,Alpha,a,768,1,12142,study
1,2,A350,Alpha,a,1210,1,12142,study
2,2,A150,Alpha,a,851,1,12142,study
3,2,A450,Alpha,a,1201,1,12142,study
4,2,A250,Alpha,a,848,1,12142,study
0,3,A350,Alpha,a,1021,1,12142,study
1,3,A50,Alpha,a,973,1,12142,study
2,3,A250,Alpha,a,1165,1,12142,study
3,3,A450,Alpha,a,1244,1,12142,study
4,3,A150,Alpha,a,618,1,12142,study
0,4,A250,Alpha,a,1301,1,12142,study
1,4,A450,Alpha,a,1605,1,12142,study
2,4,A50,Alpha,a,1100,1,12142,study
3,4,A150,Alpha,a,1088,1,12142,study
4,4,A350,Alpha,a,1406,1,12142,study
0,0,A250,Alpha,a,3373,1,12145,study
1,0,A50,Alpha,a,1500,1,12145,study
2,0,A150,Alpha,a,1551,1,12145,study
3,0,A450,Alpha,a,1009,1,12145,study
4,0,A350,Alpha,a,1012,1,12145,study
0,1,A250,Alpha,a,1028,1,12145,study
1,1,A450,Alpha,a,883,1,12145,study
2,1,A150,Alpha,a,1103,1,12145,study
3,1,A50,Alpha,a,779,1,12145,study
4,1,A350,Alpha,a,2006,1,12145,study
0,2,A350,Alpha,a,817,1,12145,study
1,2,A450,Alpha,a,751,1,12145,study
2,2,A50,Alpha,a,912,1,12145,study
3,2,A250,Alpha,a,738,1,12145,study
4,2,A150,Alpha,a,797,1,12145,study
0,3,A150,Alpha,a,876,1,12145,study
1,3,A250,Alpha,a,728,1,12145,study
2,3,A350,Alpha,a,682,1,12145,study
3,3,A450,Alpha,a,599,1,12145,study
4,3,A50,Alpha,a,599,1,12145,study
0,4,A350,Alpha,a,1341,1,12145,study
1,4,A450,Alpha,a,672,1,12145,study
2,4,A150,Alpha,a,669,1,12145,study
3,4,A250,Alpha,a,736,1,12145,study
4,4,A50,Alpha,a,651,1,12145,study
0,0,A450,Alpha,a,3974,1,12133,study
1,0,A150,Alpha,a,1298,1,12133,study
2,0,A50,Alpha,a,974,1,12133,study
3,0,A350,Alpha,a,1334,1,12133,study
4,0,A250,Alpha,a,968,1,12133,study
0,1,A450,Alpha,a,1521,1,12133,study
1,1,A150,Alpha,a,1242,1,12133,study
2,1,A50,Alpha,a,846,1,12133,study
3,1,A250,Alpha,a,996,1,12133,study
4,1,A350,Alpha,a,1372,1,12133,study
0,2,A350,Alpha,a,1045,1,12133,study
1,2,A150,Alpha,a,867,1,12133,study
2,2,A250,Alpha,a,1941,1,12133,study
3,2,A450,Alpha,a,1183,1,12133,study
4,2,A50,Alpha,a,1448,1,12133,study
0,3,A450,Alpha,a,1285,1,12133,study
1,3,A350,Alpha,a,1080,1,12133,study
2,3,A150,Alpha,a,1247,1,12133,study
3,3,A250,Alpha,a,1178,1,12133,study
4,3,A50,Alpha,a,1275,1,12133,study
0,4,A450,Alpha,a,1024,1,12133,study
1,4,A150,Alpha,a,1182,1,12133,study
2,4,A350,Alpha,a,1212,1,12133,study
3,4,A50,Alpha,a,1357,1,12133,study
4,4,A250,Alpha,a,1446,1,12133,study
0,0,A350,Alpha,a,4934,1,12162,study
1,0,A250,Alpha,a,1736,1,12162,study
2,0,A50,Alpha,a,1114,1,12162,study
3,0,A450,Alpha,a,2964,1,12162,study
4,0,A150,Alpha,a,1197,1,12162,study
0,1,A450,Alpha,a,2567,1,12162,study
1,1,A250,Alpha,a,2949,1,12162,study
2,1,A50,Alpha,a,1077,1,12162,study
3,1,A150,Alpha,a,1315,1,12162,study
4,1,A350,Alpha,a,2133,1,12162,study
0,2,A50,Alpha,a,1325,1,12162,study
1,2,A350,Alpha,a,1055,1,12162,study
2,2,A450,Alpha,a,1134,1,12162,study
3,2,A150,Alpha,a,1575,1,12162,study
4,2,A250,Alpha,a,959,1,12162,study
0,3,A350,Alpha,a,1289,1,12162,study
1,3,A50,Alpha,a,828,1,12162,study
2,3,A150,Alpha,a,3352,1,12162,study
3,3,A450,Alpha,a,918,1,12162,study
4,3,A250,Alpha,a,2495,1,12162,study
0,4,A50,Alpha,a,1450,1,12162,study
1,4,A250,Alpha,a,1308,1,12162,study
2,4,A150,Alpha,a,855,1,12162,study
3,4,A450,Alpha,a,820,1,12162,study
4,4,A350,Alpha,a,1050,1,12162,study
0,0,A350,Alpha,a,5108,1,12184,study
1,0,A50,Alpha,a,1896,1,12184,study
2,0,A250,Alpha,a,1487,1,12184,study
3,0,A150,Alpha,a,1201,1,12184,study
4,0,A450,Alpha,a,1225,1,12184,study
0,1,A250,Alpha,a,1423,1,12184,study
1,1,A450,Alpha,a,1149,1,12184,study
2,1,A350,Alpha,a,998,1,12184,study
3,1,A50,Alpha,a,908,1,12184,study
4,1,A150,Alpha,a,1199,1,12184,study
0,2,A350,Alpha,a,800,1,12184,study
1,2,A450,Alpha,a,1007,1,12184,study
2,2,A250,Alpha,a,1068,1,12184,study
3,2,A150,Alpha,a,858,1,12184,study
4,2,A50,Alpha,a,686,1,12184,study
0,3,A50,Alpha,a,690,1,12184,study
1,3,A150,Alpha,a,605,1,12184,study
2,3,A250,Alpha,a,1884,1,12184,study
3,3,A350,Alpha,a,801,1,12184,study
4,3,A450,Alpha,a,871,1,12184,study
0,4,A350,Alpha,a,749,1,12184,study
1,4,A150,Alpha,a,773,1,12184,study
2,4,A250,Alpha,a,782,1,12184,study
3,4,A50,Alpha,a,917,1,12184,study
4,4,A450,Alpha,a,929,1,12184,study
0,0,A350,Alpha,a,11653,1,12187,study
1,0,A450,Alpha,a,5314,1,12187,study
2,0,A250,Alpha,a,6246,1,12187,study
3,0,A150,Alpha,a,5341,1,12187,study
4,0,A50,Alpha,a,3910,1,12187,study
0,1,A450,Alpha,a,5801,1,12187,study
1,1,A350,Alpha,a,3239,1,12187,study
2,1,A150,Alpha,a,2347,1,12187,study
3,1,A50,Alpha,a,1933,1,12187,study
4,1,A250,Alpha,a,2454,1,12187,study
0,2,A50,Alpha,a,2010,1,12187,study
1,2,A250,Alpha,a,2969,1,12187,study
2,2,A350,Alpha,a,3567,1,12187,study
3,2,A150,Alpha,a,2611,1,12187,study
4,2,A450,Alpha,a,1750,1,12187,study
0,3,A150,Alpha,a,1912,1,12187,study
1,3,A450,Alpha,a,2330,1,12187,study
2,3,A50,Alpha,a,2580,1,12187,study
3,3,A350,Alpha,a,2108,1,12187,study
4,3,A250,Alpha,a,1440,1,12187,study
0,4,A250,Alpha,a,1499,1,12187,study
1,4,A150,Alpha,a,1184,1,12187,study
2,4,A50,Alpha,a,1413,1,12187,study
3,4,A450,Alpha,a,2125,1,12187,study
4,4,A350,Alpha,a,1445,1,12187,study
0,0,A450,Alpha,a,11206,1,12190,study
1,0,A350,Alpha,a,7124,1,12190,study
2,0,A50,Alpha,a,3310,1,12190,study
3,0,A250,Alpha,a,6400,1,12190,study
4,0,A150,Alpha,a,5007,1,12190,study
0,1,A350,Alpha,a,5236,1,12190,study
1,1,A50,Alpha,a,8359,1,12190,study
2,1,A150,Alpha,a,9135,1,12190,study
3,1,A450,Alpha,a,6080,1,12190,study
4,1,A250,Alpha,a,5113,1,12190,study
0,2,A450,Alpha,a,5377,1,12190,study
1,2,A250,Alpha,a,5864,1,12190,study
2,2,A50,Alpha,a,4564,1,12190,study
3,2,A150,Alpha,a,7740,1,12190,study
4,2,A350,Alpha,a,8915,1,12190,study
0,3,A450,Alpha,a,4404,1,12190,study
1,3,A50,Alpha,a,7339,1,12190,study
2,3,A350,Alpha,a,7298,1,12190,study
3,3,A250,Alpha,a,10419,1,12190,study
4,3,A150,Alpha,a,6405,1,12190,study
0,4,A150,Alpha,a,1717,1,12190,study
1,4,A450,Alpha,a,4615,1,12190,study
2,4,A350,Alpha,a,6029,1,12190,study
3,4,A50,Alpha,a,5610,1,12190,study
4,4,A250,Alpha,a,6206,1,12190,study
0,0,A150,Alpha,a,4321,1,12193,study
1,0,A250,Alpha,a,2813,1,12193,study
2,0,A450,Alpha,a,1909,1,12193,study
3,0,A50,Alpha,a,6456,1,12193,study
4,0,A350,Alpha,a,3306,1,12193,study
0,1,A350,Alpha,a,2093,1,12193,study
1,1,A150,Alpha,a,2151,1,12193,study
2,1,A450,Alpha,a,2097,1,12193,study
3,1,A250,Alpha,a,3675,1,12193,study
4,1,A50,Alpha,a,3320,1,12193,study
0,2,A50,Alpha,a,1500,1,12193,study
1,2,A450,Alpha,a,1493,1,12193,study
2,2,A150,Alpha,a,1824,1,12193,study
3,2,A350,Alpha,a,2700,1,12193,study
4,2,A250,Alpha,a,1891,1,12193,study
0,3,A50,Alpha,a,1483,1,12193,study
1,3,A150,Alpha,a,773,1,12193,study
2,3,A450,Alpha,a,2504,1,12193,study
3,3,A350,Alpha,a,2819,1,12193,study
4,3,A250,Alpha,a,1916,1,12193,study
0,4,A150,Alpha,a,1604,1,12193,study
1,4,A450,Alpha,a,2012,1,12193,study
2,4,A250,Alpha,a,1664,1,12193,study
3,4,A50,Alpha,a,1525,1,12193,study
4,4,A350,Alpha,a,1343,1,12193,study
0,0,A450,Alpha,a,3996,1,12196,study
1,0,A250,Alpha,a,1746,1,12196,study
2,0,A350,Alpha,a,2624,1,12196,study
3,0,A150,Alpha,a,1783,1,12196,study
4,0,A50,Alpha,a,1414,1,12196,study
0,1,A50,Alpha,a,1211,1,12196,study
1,1,A150,Alpha,a,1402,1,12196,study
2,1,A350,Alpha,a,937,1,12196,study
3,1,A250,Alpha,a,1045,1,12196,study
4,1,A450,Alpha,a,1761,1,12196,study
0,2,A450,Alpha,a,1426,1,12196,study
1,2,A350,Alpha,a,1319,1,12196,study
2,2,A150,Alpha,a,1123,1,12196,study
3,2,A50,Alpha,a,788,1,12196,study
4,2,A250,Alpha,a,911,1,12196,study
0,3,A150,Alpha,a,925,1,12196,study
1,3,A50,Alpha,a,714,1,12196,study
2,3,A350,Alpha,a,1969,1,12196,study
3,3,A250,Alpha,a,877,1,12196,study
4,3,A450,Alpha,a,725,1,12196,study
0,4,A350,Alpha,a,873,1,12196,study
1,4,A250,Alpha,a,645,1,12196,study
2,4,A50,Alpha,a,1133,1,12196,study
3,4,A450,Alpha,a,533,1,12196,study
4,4,A150,Alpha,a,696,1,12196,study
0,0,A50,Alpha,a,4385,1,12199,study
1,0,A450,Alpha,a,2221,1,12199,study
2,0,A150,Alpha,a,2381,1,12199,study
3,0,A250,Alpha,a,4923,1,12199,study
4,0,A350,Alpha,a,2538,1,12199,study
0,1,A150,Alpha,a,1711,1,12199,study
1,1,A250,Alpha,a,2073,1,12199,study
2,1,A50,Alpha,a,2045,1,12199,study
3,1,A450,Alpha,a,1754,1,12199,study
4,1,A350,Alpha,a,1675,1,12199,study
0,2,A150,Alpha,a,1360,1,12199,study
1,2,A50,Alpha,a,1369,1,12199,study
2,2,A250,Alpha,a,1199,1,12199,study
3,2,A350,Alpha,a,2502,1,12199,study
4,2,A450,Alpha,a,1347,1,12199,study
0,3,A50,Alpha,a,1235,1,12199,study
1,3,A450,Alpha,a,1547,1,12199,study
2,3,A150,Alpha,a,1226,1,12199,study
3,3,A250,Alpha,a,1097,1,12199,study
4,3,A350,Alpha,a,980,1,12199,study
0,4,A450,Alpha,a,981,1,12199,study
1,4,A50,Alpha,a,1324,1,12199,study
2,4,A250,Alpha,a,720,1,12199,study
3,4,A350,Alpha,a,1218,1,12199,study
4,4,A150,Alpha,a,1568,1,12199,study
0,0,A350,Alpha,a,2864,1,11296,study
1,0,A50,Alpha,a,2426,1,11296,study
2,0,A250,Alpha,a,1162,1,11296,study
3,0,A450,Alpha,a,1817,1,11296,study
4,0,A150,Alpha,a,1559,1,11296,study
0,1,A50,Alpha,a,1167,1,11296,study
1,1,A250,Alpha,a,1169,1,11296,study
2,1,A150,Alpha,a,1238,1,11296,study
3,1,A350,Alpha,a,1062,1,11296,study
4,1,A450,Alpha,a,1283,1,11296,study
0,2,A50,Alpha,a,1744,1,11296,study
1,2,A250,Alpha,a,1512,1,11296,study
2,2,A350,Alpha,a,1362,1,11296,study
3,2,A150,Alpha,a,1162,1,11296,study
4,2,A450,Alpha,a,628,1,11296,study
0,3,A350,Alpha,a,755,1,11296,study
1,3,A50,Alpha,a,726,1,11296,study
2,3,A450,Alpha,a,1382,1,11296,study
3,3,A150,Alpha,a,1239,1,11296,study
4,3,A250,Alpha,a,901,1,11296,study
0,4,A450,Alpha,a,559,1,11296,study
1,4,A250,Alpha,a,568,1,11296,study
2,4,A350,Alpha,a,560,1,11296,study
3,4,A50,Alpha,a,665,1,11296,study
4,4,A150,Alpha,a,519,1,11296,study
0,0,A250,Alpha,a,7379,1,12202,study
1,0,A150,Alpha,a,3768,1,12202,study
2,0,A450,Alpha,a,3304,1,12202,study
3,0,A350,Alpha,a,4491,1,12202,study
4,0,A50,Alpha,a,3294,1,12202,study
0,1,A250,Alpha,a,6123,1,12202,study
1,1,A450,Alpha,a,4657,1,12202,study
2,1,A150,Alpha,a,5235,1,12202,study
3,1,A350,Alpha,a,3848,1,12202,study
4,1,A50,Alpha,a,4405,1,12202,study
0,2,A50,Alpha,a,3134,1,12202,study
1,2,A450,Alpha,a,4943,1,12202,study
2,2,A250,Alpha,a,5182,1,12202,study
3,2,A150,Alpha,a,2019,1,12202,study
4,2,A350,Alpha,a,4425,1,12202,study
0,3,A150,Alpha,a,2103,1,12202,study
1,3,A50,Alpha,a,4761,1,12202,study
2,3,A450,Alpha,a,2160,1,12202,study
3,3,A250,Alpha,a,1337,1,12202,study
4,3,A350,Alpha,a,1218,1,12202,study
0,4,A50,Alpha,a,1441,1,12202,study
1,4,A350,Alpha,a,3174,1,12202,study
2,4,A450,Alpha,a,1317,1,12202,study
3,4,A250,Alpha,a,735,1,12202,study
4,4,A150,Alpha,a,921,1,12202,study
0,0,A150,Alpha,a,1954,1,12218,study
1,0,A250,Alpha,a,2057,1,12218,study
2,0,A50,Alpha,a,1942,1,12218,study
3,0,A350,Alpha,a,1492,1,12218,study
4,0,A450,Alpha,a,878,1,12218,study
0,1,A350,Alpha,a,631,1,12218,study
1,1,A150,Alpha,a,501,1,12218,study
2,1,A50,Alpha,a,441,1,12218,study
3,1,A450,Alpha,a,653,1,12218,study
4,1,A250,Alpha,a,451,1,12218,study
0,2,A150,Alpha,a,537,1,12218,study
1,2,A50,Alpha,a,483,1,12218,study
2,2,A350,Alpha,a,624,1,12218,study
3,2,A250,Alpha,a,775,1,12218,study
4,2,A450,Alpha,a,998,1,12218,study
0,3,A450,Alpha,a,788,1,12218,study
1,3,A50,Alpha,a,589,1,12218,study
2,3,A150,Alpha,a,659,1,12218,study
3,3,A350,Alpha,a,584,1,12218,study
4,3,A250,Alpha,a,525,1,12218,study
0,4,A150,Alpha,a,507,1,12218,study
1,4,A250,Alpha,a,419,1,12218,study
2,4,A50,Alpha,a,430,1,12218,study
3,4,A350,Alpha,a,452,1,12218,study
4,4,A450,Alpha,a,498,1,12218,study
0,0,A350,Alpha,a,8829,1,12221,study
1,0,A250,Alpha,a,6951,1,12221,study
2,0,A450,Alpha,a,4935,1,12221,study
3,0,A150,Alpha,a,4464,1,12221,study
4,0,A50,Alpha,a,3175,1,12221,study
0,1,A150,Alpha,a,5356,1,12221,study
1,1,A450,Alpha,a,4963,1,12221,study
2,1,A250,Alpha,a,4091,1,12221,study
3,1,A350,Alpha,a,3446,1,12221,study
4,1,A50,Alpha,a,3747,1,12221,study
0,2,A450,Alpha,a,4627,1,12221,study
1,2,A350,Alpha,a,7000,1,12221,study
2,2,A250,Alpha,a,4190,1,12221,study
3,2,A50,Alpha,a,1627,1,12221,study
4,2,A150,Alpha,a,2137,1,12221,study
0,3,A250,Alpha,a,2484,1,12221,study
1,3,A450,Alpha,a,2494,1,12221,study
2,3,A350,Alpha,a,2162,1,12221,study
3,3,A50,Alpha,a,1912,1,12221,study
4,3,A150,Alpha,a,1013,1,12221,study
0,4,A50,Alpha,a,795,1,12221,study
1,4,A250,Alpha,a,1175,1,12221,study
2,4,A450,Alpha,a,2651,1,12221,study
3,4,A150,Alpha,a,5713,1,12221,study
4,4,A350,Alpha,a,4846,1,12221,study
0,0,A150,Alpha,a,3230,1,12136,study
1,0,A250,Alpha,a,1746,1,12136,study
2,0,A450,Alpha,a,968,1,12136,study
3,0,A50,Alpha,a,1781,1,12136,study
4,0,A350,Alpha,a,1209,1,12136,study
0,1,A50,Alpha,a,1103,1,12136,study
1,1,A150,Alpha,a,1425,1,12136,study
2,1,A450,Alpha,a,1158,1,12136,study
3,1,A250,Alpha,a,1217,1,12136,study
4,1,A350,Alpha,a,1016,1,12136,study
0,2,A150,Alpha,a,1221,1,12136,study
1,2,A250,Alpha,a,1220,1,12136,study
2,2,A450,Alpha,a,1220,1,12136,study
3,2,A350,Alpha,a,1185,1,12136,study
4,2,A50,Alpha,a,1129,1,12136,study
0,3,A150,Alpha,a,1258,1,12136,study
1,3,A350,Alpha,a,1561,1,12136,study
2,3,A50,Alpha,a,1401,1,12136,study
3,3,A450,Alpha,a,1360,1,12136,study
4,3,A250,Alpha,a,1144,1,12136,study
0,4,A50,Alpha,a,1409,1,12136,study
1,4,A350,Alpha,a,1088,1,12136,study
2,4,A250,Alpha,a,1254,1,12136,study
3,4,A150,Alpha,a,1341,1,12136,study
4,4,A450,Alpha,a,1348,1,12136,study
0,0,A350,Alpha,a,3086,1,12224,study
1,0,A450,Alpha,a,1891,1,12224,study
2,0,A250,Alpha,a,1829,1,12224,study
3,0,A50,Alpha,a,1563,1,12224,study
4,0,A150,Alpha,a,2180,1,12224,study
0,1,A250,Alpha,a,1372,1,12224,study
1,1,A50,Alpha,a,1085,1,12224,study
2,1,A350,Alpha,a,1264,1,12224,study
3,1,A150,Alpha,a,1484,1,12224,study
4,1,A450,Alpha,a,993,1,12224,study
0,2,A250,Alpha,a,1183,1,12224,study
1,2,A50,Alpha,a,1153,1,12224,study
2,2,A150,Alpha,a,1305,1,12224,study
3,2,A450,Alpha,a,850,1,12224,study
4,2,A350,Alpha,a,649,1,12224,study
0,3,A50,Alpha,a,854,1,12224,study
1,3,A150,Alpha,a,1243,1,12224,study
2,3,A250,Alpha,a,1593,1,12224,study
3,3,A450,Alpha,a,873,1,12224,study
4,3,A350,Alpha,a,1126,1,12224,study
0,4,A250,Alpha,a,1023,1,12224,study
1,4,A450,Alpha,a,934,1,12224,study
2,4,A50,Alpha,a,872,1,12224,study
3,4,A150,Alpha,a,1822,1,12224,study
4,4,A350,Alpha,a,1297,1,12224,study
0,0,A350,Alpha,a,5676,1,12227,study
1,0,A150,Alpha,a,1539,1,12227,study
2,0,A250,Alpha,a,1969,1,12227,study
3,0,A450,Alpha,a,1384,1,12227,study
4,0,A50,Alpha,a,1554,1,12227,study
0,1,A450,Alpha,a,1136,1,12227,study
1,1,A150,Alpha,a,1796,1,12227,study
2,1,A50,Alpha,a,986,1,12227,study
3,1,A350,Alpha,a,858,1,12227,study
4,1,A250,Alpha,a,719,1,12227,study
0,2,A350,Alpha,a,817,1,12227,study
1,2,A450,Alpha,a,2440,1,12227,study
2,2,A150,Alpha,a,550,1,12227,study
3,2,A50,Alpha,a,575,1,12227,study
4,2,A250,Alpha,a,704,1,12227,study
0,3,A450,Alpha,a,954,1,12227,study
1,3,A350,Alpha,a,2684,1,12227,study
2,3,A150,Alpha,a,1271,1,12227,study
3,3,A50,Alpha,a,1011,1,12227,study
4,3,A250,Alpha,a,902,1,12227,study
0,4,A250,Alpha,a,837,1,12227,study
1,4,A450,Alpha,a,691,1,12227,study
2,4,A150,Alpha,a,896,1,12227,study
3,4,A350,Alpha,a,938,1,12227,study
4,4,A50,Alpha,a,698,1,12227,study
0,0,A350,Alpha,a,4490,1,12230,study
1,0,A250,Alpha,a,2064,1,12230,study
2,0,A150,Alpha,a,1570,1,12230,study
3,0,A50,Alpha,a,2109,1,12230,study
4,0,A450,Alpha,a,2201,1,12230,study
0,1,A250,Alpha,a,1887,1,12230,study
1,1,A450,Alpha,a,3599,1,12230,study
2,1,A350,Alpha,a,896,1,12230,study
3,1,A50,Alpha,a,1636,1,12230,study
4,1,A150,Alpha,a,2681,1,12230,study
0,2,A150,Alpha,a,1421,1,12230,study
1,2,A50,Alpha,a,1411,1,12230,study
2,2,A250,Alpha,a,1185,1,12230,study
3,2,A450,Alpha,a,1976,1,12230,study
4,2,A350,Alpha,a,3226,1,12230,study
0,3,A250,Alpha,a,2535,1,12230,study
1,3,A450,Alpha,a,3163,1,12230,study
2,3,A350,Alpha,a,2026,1,12230,study
3,3,A150,Alpha,a,2125,1,12230,study
4,3,A50,Alpha,a,913,1,12230,study
0,4,A50,Alpha,a,1011,1,12230,study
1,4,A150,Alpha,a,680,1,12230,study
2,4,A450,Alpha,a,655,1,12230,study
3,4,A350,Alpha,a,484,1,12230,study
4,4,A250,Alpha,a,432,1,12230,study
0,0,A450,Alpha,a,3974,1,12133,study
1,0,A150,Alpha,a,1298,1,12133,study
2,0,A50,Alpha,a,974,1,12133,study
3,0,A350,Alpha,a,1334,1,12133,study
4,0,A250,Alpha,a,968,1,12133,study
0,1,A450,Alpha,a,1521,1,12133,study
1,1,A150,Alpha,a,1242,1,12133,study
2,1,A50,Alpha,a,846,1,12133,study
3,1,A250,Alpha,a,996,1,12133,study
4,1,A350,Alpha,a,1372,1,12133,study
0,2,A350,Alpha,a,1045,1,12133,study
1,2,A150,Alpha,a,867,1,12133,study
2,2,A250,Alpha,a,1941,1,12133,study
3,2,A450,Alpha,a,1183,1,12133,study
4,2,A50,Alpha,a,1448,1,12133,study
0,3,A450,Alpha,a,1285,1,12133,study
1,3,A350,Alpha,a,1080,1,12133,study
2,3,A150,Alpha,a,1247,1,12133,study
3,3,A250,Alpha,a,1178,1,12133,study
4,3,A50,Alpha,a,1275,1,12133,study
0,4,A450,Alpha,a,1024,1,12133,study
1,4,A150,Alpha,a,1182,1,12133,study
2,4,A350,Alpha,a,1212,1,12133,study
3,4,A50,Alpha,a,1357,1,12133,study
4,4,A250,Alpha,a,1446,1,12133,study
0,0,A50,Alpha,a,11533,1,12252,study
1,0,A250,Alpha,a,6379,1,12252,study
2,0,A150,Alpha,a,5635,1,12252,study
3,0,A350,Alpha,a,5608,1,12252,study
4,0,A450,Alpha,a,5605,1,12252,study
0,1,A450,Alpha,a,4771,1,12252,study
1,1,A250,Alpha,a,4786,1,12252,study
2,1,A50,Alpha,a,2553,1,12252,study
3,1,A350,Alpha,a,6057,1,12252,study
4,1,A150,Alpha,a,4186,1,12252,study
0,2,A150,Alpha,a,2268,1,12252,study
1,2,A450,Alpha,a,3131,1,12252,study
2,2,A350,Alpha,a,3312,1,12252,study
3,2,A50,Alpha,a,1690,1,12252,study
4,2,A250,Alpha,a,2971,1,12252,study
0,3,A250,Alpha,a,1438,1,12252,study
1,3,A150,Alpha,a,2595,1,12252,study
2,3,A350,Alpha,a,2259,1,12252,study
3,3,A450,Alpha,a,1983,1,12252,study
4,3,A50,Alpha,a,2390,1,12252,study
0,4,A50,Alpha,a,1702,1,12252,study
1,4,A450,Alpha,a,2672,1,12252,study
2,4,A350,Alpha,a,1576,1,12252,study
3,4,A250,Alpha,a,1162,1,12252,study
4,4,A150,Alpha,a,1444,1,12252,study
0,0,A250,Alpha,a,3511,1,12255,study
1,0,A50,Alpha,a,3520,1,12255,study
2,0,A350,Alpha,a,1594,1,12255,study
3,0,A450,Alpha,a,1224,1,12255,study
4,0,A150,Alpha,a,1766,1,12255,study
0,1,A150,Alpha,a,1469,1,12255,study
1,1,A250,Alpha,a,964,1,12255,study
2,1,A450,Alpha,a,853,1,12255,study
3,1,A350,Alpha,a,1066,1,12255,study
4,1,A50,Alpha,a,1175,1,12255,study
0,2,A50,Alpha,a,696,1,12255,study
1,2,A150,Alpha,a,2067,1,12255,study
2,2,A350,Alpha,a,1023,1,12255,study
3,2,A250,Alpha,a,1149,1,12255,study
4,2,A450,Alpha,a,847,1,12255,study
0,3,A50,Alpha,a,835,1,12255,study
1,3,A350,Alpha,a,843,1,12255,study
2,3,A250,Alpha,a,928,1,12255,study
3,3,A150,Alpha,a,937,1,12255,study
4,3,A450,Alpha,a,977,1,12255,study
0,4,A150,Alpha,a,2938,1,12255,study
1,4,A250,Alpha,a,1069,1,12255,study
2,4,A50,Alpha,a,705,1,12255,study
3,4,A350,Alpha,a,715,1,12255,study
4,4,A450,Alpha,a,813,1,12255,study
0,0,A150,Alpha,a,4702,1,12258,study
1,0,A450,Alpha,a,1995,1,12258,study
2,0,A250,Alpha,a,3795,1,12258,study
3,0,A350,Alpha,a,3202,1,12258,study
4,0,A50,Alpha,a,1169,1,12258,study
0,1,A50,Alpha,a,1713,1,12258,study
1,1,A350,Alpha,a,1713,1,12258,study
2,1,A250,Alpha,a,2085,1,12258,study
3,1,A450,Alpha,a,659,1,12258,study
4,1,A150,Alpha,a,1662,1,12258,study
0,2,A50,Alpha,a,1018,1,12258,study
1,2,A150,Alpha,a,1002,1,12258,study
2,2,A450,Alpha,a,984,1,12258,study
3,2,A250,Alpha,a,936,1,12258,study
4,2,A350,Alpha,a,875,1,12258,study
0,3,A50,Alpha,a,1135,1,12258,study
1,3,A150,Alpha,a,1058,1,12258,study
2,3,A450,Alpha,a,662,1,12258,study
3,3,A350,Alpha,a,730,1,12258,study
4,3,A250,Alpha,a,668,1,12258,study
0,4,A150,Alpha,a,554,1,12258,study
1,4,A250,Alpha,a,538,1,12258,study
2,4,A50,Alpha,a,629,1,12258,study
3,4,A350,Alpha,a,646,1,12258,study
4,4,A450,Alpha,a,681,1,12258,study
0,0,A150,Alpha,a,5981,1,12275,study
1,0,A450,Alpha,a,4517,1,12275,study
2,0,A250,Alpha,a,4680,1,12275,study
3,0,A50,Alpha,a,3515,1,12275,study
4,0,A350,Alpha,a,4836,1,12275,study
0,1,A350,Alpha,a,2611,1,12275,study
1,1,A50,Alpha,a,2657,1,12275,study
2,1,A150,Alpha,a,2356,1,12275,study
3,1,A250,Alpha,a,2722,1,12275,study
4,1,A450,Alpha,a,3376,1,12275,study
0,2,A250,Alpha,a,3136,1,12275,study
1,2,A150,Alpha,a,2514,1,12275,study
2,2,A450,Alpha,a,2171,1,12275,study
3,2,A350,Alpha,a,1770,1,12275,study
4,2,A50,Alpha,a,1522,1,12275,study
0,3,A250,Alpha,a,1765,1,12275,study
1,3,A150,Alpha,a,1684,1,12275,study
2,3,A50,Alpha,a,1599,1,12275,study
3,3,A350,Alpha,a,1575,1,12275,study
4,3,A450,Alpha,a,1543,1,12275,study
0,4,A250,Alpha,a,1843,1,12275,study
1,4,A450,Alpha,a,1669,1,12275,study
2,4,A150,Alpha,a,1962,1,12275,study
3,4,A50,Alpha,a,1618,1,12275,study
4,4,A350,Alpha,a,1657,1,12275,study
0,0,A350,Alpha,a,4917,1,12278,study
1,0,A50,Alpha,a,4185,1,12278,study
2,0,A450,Alpha,a,2278,1,12278,study
3,0,A150,Alpha,a,2220,1,12278,study
4,0,A250,Alpha,a,1698,1,12278,study
0,1,A350,Alpha,a,2093,1,12278,study
1,1,A250,Alpha,a,617,1,12278,study
2,1,A50,Alpha,a,623,1,12278,study
3,1,A150,Alpha,a,405,1,12278,study
4,1,A450,Alpha,a,516,1,12278,study
0,2,A350,Alpha,a,1871,1,12278,study
1,2,A250,Alpha,a,1250,1,12278,study
2,2,A150,Alpha,a,472,1,12278,study
3,2,A50,Alpha,a,533,1,12278,study
4,2,A450,Alpha,a,581,1,12278,study
0,3,A50,Alpha,a,790,1,12278,study
1,3,A250,Alpha,a,811,1,12278,study
2,3,A150,Alpha,a,987,1,12278,study
3,3,A450,Alpha,a,1109,1,12278,study
4,3,A350,Alpha,a,1238,1,12278,study
0,4,A150,Alpha,a,1264,1,12278,study
1,4,A450,Alpha,a,1489,1,12278,study
2,4,A250,Alpha,a,815,1,12278,study
3,4,A350,Alpha,a,763,1,12278,study
4,4,A50,Alpha,a,887,1,12278,study
0,0,A150,Alpha,a,3057,1,12283,study
1,0,A350,Alpha,a,2981,1,12283,study
2,0,A250,Alpha,a,1783,1,12283,study
3,0,A50,Alpha,a,1023,1,12283,study
4,0,A450,Alpha,a,1173,1,12283,study
0,1,A150,Alpha,a,5862,1,12283,study
1,1,A50,Alpha,a,993,1,12283,study
2,1,A250,Alpha,a,1152,1,12283,study
3,1,A450,Alpha,a,985,1,12283,study
4,1,A350,Alpha,a,817,1,12283,study
0,2,A350,Alpha,a,1279,1,12283,study
1,2,A250,Alpha,a,997,1,12283,study
2,2,A450,Alpha,a,1171,1,12283,study
3,2,A50,Alpha,a,844,1,12283,study
4,2,A150,Alpha,a,952,1,12283,study
0,3,A50,Alpha,a,1754,1,12283,study
1,3,A350,Alpha,a,1659,1,12283,study
2,3,A150,Alpha,a,1247,1,12283,study
3,3,A250,Alpha,a,878,1,12283,study
4,3,A450,Alpha,a,1065,1,12283,study
0,4,A50,Alpha,a,894,1,12283,study
1,4,A250,Alpha,a,2297,1,12283,study
2,4,A350,Alpha,a,1069,1,12283,study
3,4,A450,Alpha,a,914,1,12283,study
4,4,A150,Alpha,a,763,1,12283,study
0,0,A150,Alpha,a,4590,1,12286,study
1,0,A50,Alpha,a,2529,1,12286,study
2,0,A450,Alpha,a,1797,1,12286,study
3,0,A250,Alpha,a,1335,1,12286,study
4,0,A350,Alpha,a,1022,1,12286,study
0,1,A250,Alpha,a,1196,1,12286,study
1,1,A150,Alpha,a,1245,1,12286,study
2,1,A50,Alpha,a,1684,1,12286,study
3,1,A350,Alpha,a,1140,1,12286,study
4,1,A450,Alpha,a,1136,1,12286,study
0,2,A150,Alpha,a,889,1,12286,study
1,2,A50,Alpha,a,958,1,12286,study
2,2,A450,Alpha,a,1007,1,12286,study
3,2,A350,Alpha,a,830,1,12286,study
4,2,A250,Alpha,a,1611,1,12286,study
0,3,A250,Alpha,a,503,1,12286,study
1,3,A50,Alpha,a,1527,1,12286,study
2,3,A450,Alpha,a,1433,1,12286,study
3,3,A350,Alpha,a,446,1,12286,study
4,3,A150,Alpha,a,835,1,12286,study
0,4,A50,Alpha,a,791,1,12286,study
1,4,A350,Alpha,a,1041,1,12286,study
2,4,A450,Alpha,a,487,1,12286,study
3,4,A250,Alpha,a,515,1,12286,study
4,4,A150,Alpha,a,517,1,12286,study
0,0,A150,Alpha,a,4600,1,12289,study
1,0,A250,Alpha,a,2498,1,12289,study
2,0,A450,Alpha,a,2014,1,12289,study
3,0,A50,Alpha,a,2236,1,12289,study
4,0,A350,Alpha,a,1921,1,12289,study
0,1,A350,Alpha,a,2300,1,12289,study
1,1,A250,Alpha,a,2498,1,12289,study
2,1,A50,Alpha,a,2314,1,12289,study
3,1,A150,Alpha,a,2099,1,12289,study
4,1,A450,Alpha,a,2759,1,12289,study
0,2,A150,Alpha,a,2552,1,12289,study
1,2,A450,Alpha,a,2158,1,12289,study
2,2,A350,Alpha,a,2304,1,12289,study
3,2,A250,Alpha,a,2355,1,12289,study
4,2,A50,Alpha,a,2075,1,12289,study
0,3,A450,Alpha,a,3054,1,12289,study
1,3,A250,Alpha,a,2099,1,12289,study
2,3,A350,Alpha,a,2389,1,12289,study
3,3,A150,Alpha,a,2325,1,12289,study
4,3,A50,Alpha,a,1686,1,12289,study
0,4,A150,Alpha,a,1427,1,12289,study
1,4,A250,Alpha,a,1256,1,12289,study
2,4,A350,Alpha,a,1318,1,12289,study
3,4,A50,Alpha,a,1416,1,12289,study
4,4,A450,Alpha,a,1255,1,12289,study
0,0,A250,Alpha,a,5165,1,12298,study
1,0,A150,Alpha,a,15120,1,12298,study
2,0,A450,Alpha,a,11394,1,12298,study
3,0,A350,Alpha,a,12315,1,12298,study
4,0,A50,Alpha,a,11709,1,12298,study
0,1,A450,Alpha,a,21970,1,12298,study
1,1,A250,Alpha,a,73692,1,12298,study
2,1,A150,Alpha,a,7971,1,12298,study
3,1,A350,Alpha,a,9558,1,12298,study
4,1,A50,Alpha,a,14649,1,12298,study
0,2,A250,Alpha,a,4861,1,12298,study
1,2,A150,Alpha,a,8836,1,12298,study
2,2,A350,Alpha,a,3471,1,12298,study
3,2,A50,Alpha,a,3963,1,12298,study
4,2,A450,Alpha,a,1924,1,12298,study
0,3,A150,Alpha,a,2309,1,12298,study
1,3,A50,Alpha,a,1680,1,12298,study
2,3,A250,Alpha,a,2931,1,12298,study
3,3,A450,Alpha,a,1828,1,12298,study
4,3,A350,Alpha,a,1035,1,12298,study
0,4,A50,Alpha,a,2120,1,12298,study
1,4,A350,Alpha,a,656,1,12298,study
2,4,A250,Alpha,a,3735,1,12298,study
3,4,A450,Alpha,a,1278,1,12298,study
4,4,A150,Alpha,a,1873,1,12298,study
0,0,A150,Alpha,a,3230,1,12136,study
1,0,A250,Alpha,a,1746,1,12136,study
2,0,A450,Alpha,a,968,1,12136,study
3,0,A50,Alpha,a,1781,1,12136,study
4,0,A350,Alpha,a,1209,1,12136,study
0,1,A50,Alpha,a,1103,1,12136,study
1,1,A150,Alpha,a,1425,1,12136,study
2,1,A450,Alpha,a,1158,1,12136,study
3,1,A250,Alpha,a,1217,1,12136,study
4,1,A350,Alpha,a,1016,1,12136,study
0,2,A150,Alpha,a,1221,1,12136,study
1,2,A250,Alpha,a,1220,1,12136,study
2,2,A450,Alpha,a,1220,1,12136,study
3,2,A350,Alpha,a,1185,1,12136,study
4,2,A50,Alpha,a,1129,1,12136,study
0,3,A150,Alpha,a,1258,1,12136,study
1,3,A350,Alpha,a,1561,1,12136,study
2,3,A50,Alpha,a,1401,1,12136,study
3,3,A450,Alpha,a,1360,1,12136,study
4,3,A250,Alpha,a,1144,1,12136,study
0,4,A50,Alpha,a,1409,1,12136,study
1,4,A350,Alpha,a,1088,1,12136,study
2,4,A250,Alpha,a,1254,1,12136,study
3,4,A150,Alpha,a,1341,1,12136,study
4,4,A450,Alpha,a,1348,1,12136,study
0,0,A50,Alpha,a,3383,1,12313,study
1,0,A150,Alpha,a,1517,1,12313,study
2,0,A350,Alpha,a,2334,1,12313,study
3,0,A450,Alpha,a,3372,1,12313,study
4,0,A250,Alpha,a,4114,1,12313,study
0,1,A350,Alpha,a,1428,1,12313,study
1,1,A250,Alpha,a,928,1,12313,study
2,1,A450,Alpha,a,1092,1,12313,study
3,1,A50,Alpha,a,991,1,12313,study
4,1,A150,Alpha,a,631,1,12313,study
0,2,A150,Alpha,a,948,1,12313,study
1,2,A50,Alpha,a,750,1,12313,study
2,2,A250,Alpha,a,1392,1,12313,study
3,2,A350,Alpha,a,735,1,12313,study
4,2,A450,Alpha,a,1528,1,12313,study
0,3,A50,Alpha,a,802,1,12313,study
1,3,A450,Alpha,a,1106,1,12313,study
2,3,A150,Alpha,a,877,1,12313,study
3,3,A250,Alpha,a,720,1,12313,study
4,3,A350,Alpha,a,828,1,12313,study
0,4,A350,Alpha,a,889,1,12313,study
1,4,A450,Alpha,a,821,1,12313,study
2,4,A250,Alpha,a,1219,1,12313,study
3,4,A50,Alpha,a,856,1,12313,study
4,4,A150,Alpha,a,527,1,12313,study
0,0,A350,Alpha,a,5129,1,12317,study
1,0,A150,Alpha,a,3313,1,12317,study
2,0,A250,Alpha,a,3563,1,12317,study
3,0,A50,Alpha,a,2918,1,12317,study
4,0,A450,Alpha,a,1736,1,12317,study
0,1,A450,Alpha,a,3233,1,12317,study
1,1,A150,Alpha,a,1495,1,12317,study
2,1,A50,Alpha,a,1001,1,12317,study
3,1,A250,Alpha,a,911,1,12317,study
4,1,A350,Alpha,a,1603,1,12317,study
0,2,A350,Alpha,a,955,1,12317,study
1,2,A150,Alpha,a,1108,1,12317,study
2,2,A450,Alpha,a,1271,1,12317,study
3,2,A50,Alpha,a,1135,1,12317,study
4,2,A250,Alpha,a,853,1,12317,study
0,3,A450,Alpha,a,1538,1,12317,study
1,3,A50,Alpha,a,635,1,12317,study
2,3,A250,Alpha,a,1137,1,12317,study
3,3,A350,Alpha,a,1451,1,12317,study
4,3,A150,Alpha,a,1270,1,12317,study
0,4,A50,Alpha,a,892,1,12317,study
1,4,A350,Alpha,a,678,1,12317,study
2,4,A250,Alpha,a,795,1,12317,study
3,4,A150,Alpha,a,754,1,12317,study
4,4,A450,Alpha,a,750,1,12317,study
0,0,A150,Alpha,a,4637,1,12320,study
1,0,A50,Alpha,a,3745,1,12320,study
2,0,A450,Alpha,a,1903,1,12320,study
3,0,A350,Alpha,a,4722,1,12320,study
4,0,A250,Alpha,a,3925,1,12320,study
0,1,A50,Alpha,a,10525,1,12320,study
1,1,A250,Alpha,a,3885,1,12320,study
2,1,A450,Alpha,a,5256,1,12320,study
3,1,A350,Alpha,a,3241,1,12320,study
4,1,A150,Alpha,a,3617,1,12320,study
0,2,A450,Alpha,a,3653,1,12320,study
1,2,A350,Alpha,a,3099,1,12320,study
2,2,A150,Alpha,a,2669,1,12320,study
3,2,A50,Alpha,a,2430,1,12320,study
4,2,A250,Alpha,a,2327,1,12320,study
0,3,A450,Alpha,a,1946,1,12320,study
1,3,A250,Alpha,a,1794,1,12320,study
2,3,A150,Alpha,a,1761,1,12320,study
3,3,A50,Alpha,a,1177,1,12320,study
4,3,A350,Alpha,a,1305,1,12320,study
0,4,A250,Alpha,a,1357,1,12320,study
1,4,A150,Alpha,a,981,1,12320,study
2,4,A50,Alpha,a,901,1,12320,study
3,4,A350,Alpha,a,2113,1,12320,study
4,4,A450,Alpha,a,1234,1,12320,study
