trial,block,stimId1,stimID2,category1,category2,response,rt,condition,id,phase
1,0,B850,A50,Alpha,Alpha,0.0,7653,1,11296,similarity
2,0,B850,C1150,Beta,Gamma,4.0,2956,1,11296,similarity
3,0,B850,A250,Beta,Alpha,0.0,4793,1,11296,similarity
4,0,B850,C1450,Beta,Gamma,6.0,2201,1,11296,similarity
5,0,B850,B950,Beta, Beta,6.0,1505,1,11296,similarity
6,0,B850,A150,Beta,Alpha,0.0,1914,1,11296,similarity
7,0,B850,B750,Beta,Beta,5.0,3572,1,11296,similarity
8,0,B850,B650,Beta,Beta,5.0,1387,1,11296,similarity
9,0,B850,A450,Beta,Alpha,5.0,754,1,11296,similarity
10,0,B850,C1250,Beta,Gamma,6.0,3818,1,11296,similarity
11,0,B850,C1050,Beta,Gamma,6.0,1442,1,11296,similarity
12,0,B850,A350,Beta,Alpha,0.9999999999999998,2739,1,11296,similarity
13,0,B850,B550,Beta,Beta,0.9999999999999998,819,1,11296,similarity
14,0,B850,C1350,Beta,Gamma,6.0,2539,1,11296,similarity
2,1,A50,C1150,Alpha,Gamma,0.0,2155,1,11296,similarity
3,1,A50,A250,Alpha,Alpha,6.0,4227,1,11296,similarity
4,1,A50,C1450,Alpha,Gamma,0.0,2047,1,11296,similarity
5,1,A50,B950,Alpha, Beta,0.0,2930,1,11296,similarity
6,1,A50,A150,Alpha,Alpha,6.0,2369,1,11296,similarity
7,1,A50,B750,Alpha,Beta,0.0,3291,1,11296,similarity
8,1,A50,B650,Alpha,Beta,0.0,763,1,11296,similarity
9,1,A50,A450,Alpha,Alpha,0.0,1282,1,11296,similarity
10,1,A50,C1250,Alpha,Gamma,0.0,1917,1,11296,similarity
11,1,A50,C1050,Alpha,Gamma,0.0,531,1,11296,similarity
12,1,A50,A350,Alpha,Alpha,6.0,3436,1,11296,similarity
13,1,A50,B550,Alpha,Beta,4.0,2707,1,11296,similarity
14,1,A50,C1350,Alpha,Gamma,0.0,2065,1,11296,similarity
3,2,C1150,A250,Gamma,Alpha,0.0,4368,1,11296,similarity
4,2,C1150,C1450,Gamma,Gamma,6.0,2319,1,11296,similarity
5,2,C1150,B950,Gamma, Beta,6.0,788,1,11296,similarity
6,2,C1150,A150,Gamma,Alpha,0.0,2267,1,11296,similarity
7,2,C1150,B750,Gamma,Beta,6.0,1914,1,11296,similarity
8,2,C1150,B650,Gamma,Beta,6.0,867,1,11296,similarity
9,2,C1150,A450,Gamma,Alpha,0.0,2723,1,11296,similarity
10,2,C1150,C1250,Gamma,Gamma,6.0,3258,1,11296,similarity
11,2,C1150,C1050,Gamma,Gamma,6.0,878,1,11296,similarity
12,2,C1150,A350,Gamma,Alpha,2.0,2214,1,11296,similarity
13,2,C1150,B550,Gamma,Beta,3.0,1571,1,11296,similarity
14,2,C1150,C1350,Gamma,Gamma,6.0,2131,1,11296,similarity
4,3,A250,C1450,Alpha,Gamma,0.0,2111,1,11296,similarity
5,3,A250,B950,Alpha, Beta,0.0,915,1,11296,similarity
6,3,A250,A150,Alpha,Alpha,6.0,2898,1,11296,similarity
7,3,A250,B750,Alpha,Beta,3.0,1947,1,11296,similarity
8,3,A250,B650,Alpha,Beta,4.0,2914,1,11296,similarity
9,3,A250,A450,Alpha,Alpha,6.0,1979,1,11296,similarity
10,3,A250,C1250,Alpha,Gamma,0.0,2034,1,11296,similarity
11,3,A250,C1050,Alpha,Gamma,0.0,970,1,11296,similarity
12,3,A250,A350,Alpha,Alpha,6.0,3217,1,11296,similarity
13,3,A250,B550,Alpha,Beta,4.0,1601,1,11296,similarity
14,3,A250,C1350,Alpha,Gamma,0.0,1827,1,11296,similarity
5,4,C1450,B950,Gamma, Beta,6.0,2194,1,11296,similarity
6,4,C1450,A150,Gamma,Alpha,0.0,1923,1,11296,similarity
7,4,C1450,B750,Gamma,Beta,6.0,1706,1,11296,similarity
8,4,C1450,B650,Gamma,Beta,3.0,1934,1,11296,similarity
9,4,C1450,A450,Gamma,Alpha,3.0,804,1,11296,similarity
10,4,C1450,C1250,Gamma,Gamma,3.0,474,1,11296,similarity
11,4,C1450,C1050,Gamma,Gamma,6.0,1708,1,11296,similarity
12,4,C1450,A350,Gamma,Alpha,3.0,2114,1,11296,similarity
13,4,C1450,B550,Gamma,Beta,3.0,809,1,11296,similarity
14,4,C1450,C1350,Gamma,Gamma,6.0,1900,1,11296,similarity
6,5,B950,A150, Beta,Alpha,0.0,3826,1,11296,similarity
7,5,B950,B750, Beta,Beta,3.0,5765,1,11296,similarity
8,5,B950,B650, Beta,Beta,3.0,945,1,11296,similarity
9,5,B950,A450, Beta,Alpha,3.0,553,1,11296,similarity
10,5,B950,C1250, Beta,Gamma,6.0,1954,1,11296,similarity
11,5,B950,C1050, Beta,Gamma,6.0,1114,1,11296,similarity
12,5,B950,A350, Beta,Alpha,0.0,2970,1,11296,similarity
13,5,B950,B550, Beta,Beta,3.0,5259,1,11296,similarity
14,5,B950,C1350, Beta,Gamma,6.0,1675,1,11296,similarity
7,6,A150,B750,Alpha,Beta,2.0,1796,1,11296,similarity
8,6,A150,B650,Alpha,Beta,0.0,1322,1,11296,similarity
9,6,A150,A450,Alpha,Alpha,0.0,763,1,11296,similarity
10,6,A150,C1250,Alpha,Gamma,0.0,1267,1,11296,similarity
11,6,A150,C1050,Alpha,Gamma,0.0,698,1,11296,similarity
12,6,A150,A350,Alpha,Alpha,6.0,2595,1,11296,similarity
13,6,A150,B550,Alpha,Beta,6.0,642,1,11296,similarity
14,6,A150,C1350,Alpha,Gamma,0.0,1779,1,11296,similarity
8,7,B750,B650,Beta,Beta,6.0,2106,1,11296,similarity
9,7,B750,A450,Beta,Alpha,6.0,1097,1,11296,similarity
10,7,B750,C1250,Beta,Gamma,2.0,3034,1,11296,similarity
11,7,B750,C1050,Beta,Gamma,2.0,754,1,11296,similarity
12,7,B750,A350,Beta,Alpha,3.0,1843,1,11296,similarity
13,7,B750,B550,Beta,Beta,4.0,1605,1,11296,similarity
14,7,B750,C1350,Beta,Gamma,0.9999999999999998,3091,1,11296,similarity
9,8,B650,A450,Beta,Alpha,0.9999999999999998,1267,1,11296,similarity
10,8,B650,C1250,Beta,Gamma,4.0,2235,1,11296,similarity
11,8,B650,C1050,Beta,Gamma,4.0,941,1,11296,similarity
12,8,B650,A350,Beta,Alpha,3.0,2420,1,11296,similarity
13,8,B650,B550,Beta,Beta,6.0,2166,1,11296,similarity
14,8,B650,C1350,Beta,Gamma,4.0,3207,1,11296,similarity
10,9,A450,C1250,Alpha,Gamma,3.0,1458,1,11296,similarity
11,9,A450,C1050,Alpha,Gamma,3.0,770,1,11296,similarity
12,9,A450,A350,Alpha,Alpha,4.0,2028,1,11296,similarity
13,9,A450,B550,Alpha,Beta,5.0,1875,1,11296,similarity
14,9,A450,C1350,Alpha,Gamma,0.0,2633,1,11296,similarity
11,10,C1250,C1050,Gamma,Gamma,6.0,2007,1,11296,similarity
12,10,C1250,A350,Gamma,Alpha,0.9999999999999998,4410,1,11296,similarity
13,10,C1250,B550,Gamma,Beta,2.0,2263,1,11296,similarity
14,10,C1250,C1350,Gamma,Gamma,6.0,1796,1,11296,similarity
12,11,C1050,A350,Gamma,Alpha,0.9999999999999998,4008,1,11296,similarity
13,11,C1050,B550,Gamma,Beta,0.9999999999999998,1211,1,11296,similarity
14,11,C1050,C1350,Gamma,Gamma,6.0,2010,1,11296,similarity
13,12,A350,B550,Alpha,Beta,5.0,2820,1,11296,similarity
14,12,A350,C1350,Alpha,Gamma,0.9999999999999998,1762,1,11296,similarity
14,13,B550,C1350,Beta,Gamma,0.9999999999999998,748,1,11296,similarity
1,0,C1350,B650,Beta,Beta,0.0,7416,1,12139,similarity
2,0,C1350,A250,Gamma,Alpha,0.0,1154,1,12139,similarity
3,0,C1350,A150,Gamma,Alpha,0.0,2313,1,12139,similarity
4,0,C1350,C1050,Gamma,Gamma,4.0,3771,1,12139,similarity
5,0,C1350,C1250,Gamma,Gamma,5.0,2498,1,12139,similarity
6,0,C1350,B550,Gamma,Beta,2.0,3085,1,12139,similarity
7,0,C1350,A350,Gamma,Alpha,2.0,3830,1,12139,similarity
8,0,C1350,C1150,Gamma,Gamma,5.0,3380,1,12139,similarity
9,0,C1350,C1450,Gamma,Gamma,6.0,3220,1,12139,similarity
10,0,C1350,A50,Gamma,Alpha,0.0,3026,1,12139,similarity
11,0,C1350,B850,Gamma,Beta,5.0,3183,1,12139,similarity
12,0,C1350,A450,Gamma,Alpha,3.0,2405,1,12139,similarity
13,0,C1350,B750,Gamma,Beta,4.0,2805,1,12139,similarity
14,0,C1350,B950,Gamma, Beta,5.0,2626,1,12139,similarity
2,1,B650,A250,Beta,Alpha,3.0,4119,1,12139,similarity
3,1,B650,A150,Beta,Alpha,2.0,2066,1,12139,similarity
4,1,B650,C1050,Beta,Gamma,4.0,3713,1,12139,similarity
5,1,B650,C1250,Beta,Gamma,3.0,3071,1,12139,similarity
6,1,B650,B550,Beta,Beta,5.0,3517,1,12139,similarity
7,1,B650,A350,Beta,Alpha,3.0,3589,1,12139,similarity
8,1,B650,C1150,Beta,Gamma,4.0,5836,1,12139,similarity
9,1,B650,C1450,Beta,Gamma,3.0,3465,1,12139,similarity
10,1,B650,A50,Beta,Alpha,0.9999999999999998,3351,1,12139,similarity
11,1,B650,B850,Beta,Beta,4.0,4545,1,12139,similarity
12,1,B650,A450,Beta,Alpha,5.0,2101,1,12139,similarity
13,1,B650,B750,Beta,Beta,6.0,2420,1,12139,similarity
14,1,B650,B950,Beta, Beta,4.0,2948,1,12139,similarity
3,2,A250,A150,Alpha,Alpha,5.0,6729,1,12139,similarity
4,2,A250,C1050,Alpha,Gamma,0.0,3342,1,12139,similarity
5,2,A250,C1250,Alpha,Gamma,0.0,1246,1,12139,similarity
6,2,A250,B550,Alpha,Beta,3.0,3636,1,12139,similarity
7,2,A250,A350,Alpha,Alpha,5.0,2928,1,12139,similarity
8,2,A250,C1150,Alpha,Gamma,0.0,2554,1,12139,similarity
9,2,A250,C1450,Alpha,Gamma,0.0,890,1,12139,similarity
10,2,A250,A50,Alpha,Alpha,3.0,3892,1,12139,similarity
11,2,A250,B850,Alpha,Beta,0.9999999999999998,3325,1,12139,similarity
12,2,A250,A450,Alpha,Alpha,3.0,2465,1,12139,similarity
13,2,A250,B750,Alpha,Beta,2.0,4627,1,12139,similarity
14,2,A250,B950,Alpha, Beta,0.9999999999999998,2099,1,12139,similarity
4,3,A150,C1050,Alpha,Gamma,0.0,2518,1,12139,similarity
5,3,A150,C1250,Alpha,Gamma,0.0,1175,1,12139,similarity
6,3,A150,B550,Alpha,Beta,2.0,4464,1,12139,similarity
7,3,A150,A350,Alpha,Alpha,3.0,1835,1,12139,similarity
8,3,A150,C1150,Alpha,Gamma,0.0,7547,1,12139,similarity
9,3,A150,C1450,Alpha,Gamma,0.0,1417,1,12139,similarity
10,3,A150,A50,Alpha,Alpha,5.0,2532,1,12139,similarity
11,3,A150,B850,Alpha,Beta,0.9999999999999998,3935,1,12139,similarity
12,3,A150,A450,Alpha,Alpha,2.0,2841,1,12139,similarity
13,3,A150,B750,Alpha,Beta,0.9999999999999998,3005,1,12139,similarity
14,3,A150,B950,Alpha, Beta,0.0,3338,1,12139,similarity
5,4,C1050,C1250,Gamma,Gamma,6.0,2700,1,12139,similarity
6,4,C1050,B550,Gamma,Beta,4.0,2518,1,12139,similarity
7,4,C1050,A350,Gamma,Alpha,3.0,5049,1,12139,similarity
8,4,C1050,C1150,Gamma,Gamma,6.0,2155,1,12139,similarity
9,4,C1050,C1450,Gamma,Gamma,5.0,3979,1,12139,similarity
10,4,C1050,A50,Gamma,Alpha,0.0,3758,1,12139,similarity
11,4,C1050,B850,Gamma,Beta,5.0,5194,1,12139,similarity
12,4,C1050,A450,Gamma,Alpha,3.0,2339,1,12139,similarity
13,4,C1050,B750,Gamma,Beta,5.0,5884,1,12139,similarity
14,4,C1050,B950,Gamma, Beta,6.0,3926,1,12139,similarity
6,5,C1250,B550,Gamma,Beta,4.0,3944,1,12139,similarity
7,5,C1250,A350,Gamma,Alpha,4.0,978,1,12139,similarity
8,5,C1250,C1150,Gamma,Gamma,6.0,2992,1,12139,similarity
9,5,C1250,C1450,Gamma,Gamma,5.0,2469,1,12139,similarity
10,5,C1250,A50,Gamma,Alpha,0.0,2802,1,12139,similarity
11,5,C1250,B850,Gamma,Beta,4.0,2928,1,12139,similarity
12,5,C1250,A450,Gamma,Alpha,4.0,1162,1,12139,similarity
13,5,C1250,B750,Gamma,Beta,4.0,2437,1,12139,similarity
14,5,C1250,B950,Gamma, Beta,5.0,2224,1,12139,similarity
7,6,B550,A350,Beta,Alpha,5.0,3901,1,12139,similarity
8,6,B550,C1150,Beta,Gamma,2.0,7176,1,12139,similarity
9,6,B550,C1450,Beta,Gamma,0.0,2899,1,12139,similarity
10,6,B550,A50,Beta,Alpha,0.0,4570,1,12139,similarity
11,6,B550,B850,Beta,Beta,5.0,3962,1,12139,similarity
12,6,B550,A450,Beta,Alpha,6.0,2273,1,12139,similarity
13,6,B550,B750,Beta,Beta,5.0,5352,1,12139,similarity
14,6,B550,B950,Beta, Beta,4.0,3668,1,12139,similarity
8,7,A350,C1150,Alpha,Gamma,3.0,2383,1,12139,similarity
9,7,A350,C1450,Alpha,Gamma,0.0,3335,1,12139,similarity
10,7,A350,A50,Alpha,Alpha,2.0,3551,1,12139,similarity
11,7,A350,B850,Alpha,Beta,3.0,2380,1,12139,similarity
12,7,A350,A450,Alpha,Alpha,5.0,2898,1,12139,similarity
13,7,A350,B750,Alpha,Beta,5.0,2355,1,12139,similarity
14,7,A350,B950,Alpha, Beta,5.0,779,1,12139,similarity
9,8,C1150,C1450,Gamma,Gamma,6.0,2241,1,12139,similarity
10,8,C1150,A50,Gamma,Alpha,0.0,2480,1,12139,similarity
11,8,C1150,B850,Gamma,Beta,5.0,2052,1,12139,similarity
12,8,C1150,A450,Gamma,Alpha,3.0,2407,1,12139,similarity
13,8,C1150,B750,Gamma,Beta,5.0,2352,1,12139,similarity
14,8,C1150,B950,Gamma, Beta,6.0,2400,1,12139,similarity
10,9,C1450,A50,Gamma,Alpha,0.0,2751,1,12139,similarity
11,9,C1450,B850,Gamma,Beta,4.0,6157,1,12139,similarity
12,9,C1450,A450,Gamma,Alpha,3.0,2749,1,12139,similarity
13,9,C1450,B750,Gamma,Beta,4.0,2708,1,12139,similarity
14,9,C1450,B950,Gamma, Beta,5.0,1899,1,12139,similarity
11,10,A50,B850,Alpha,Beta,0.0,2675,1,12139,similarity
12,10,A50,A450,Alpha,Alpha,2.0,2092,1,12139,similarity
13,10,A50,B750,Alpha,Beta,0.9999999999999998,1793,1,12139,similarity
14,10,A50,B950,Alpha, Beta,0.0,1965,1,12139,similarity
12,11,B850,A450,Beta,Alpha,4.0,2511,1,12139,similarity
13,11,B850,B750,Beta,Beta,6.0,1981,1,12139,similarity
14,11,B850,B950,Beta, Beta,6.0,2101,1,12139,similarity
13,12,A450,B750,Alpha,Beta,5.0,1978,1,12139,similarity
14,12,A450,B950,Alpha, Beta,4.0,1931,1,12139,similarity
14,13,B750,B950,Beta, Beta,6.0,1858,1,12139,similarity
1,0,A150,C1150,Gamma,Gamma,0.0,4027,1,12142,similarity
2,0,A150,A350,Alpha,Alpha,2.0,3003,1,12142,similarity
3,0,A150,B850,Alpha,Beta,0.9999999999999998,2858,1,12142,similarity
4,0,A150,C1250,Alpha,Gamma,0.0,3103,1,12142,similarity
5,0,A150,B750,Alpha,Beta,0.9999999999999998,2312,1,12142,similarity
6,0,A150,A250,Alpha,Alpha,3.0,6426,1,12142,similarity
7,0,A150,C1350,Alpha,Gamma,0.0,3198,1,12142,similarity
8,0,A150,A450,Alpha,Alpha,2.0,2295,1,12142,similarity
9,0,A150,C1050,Alpha,Gamma,0.0,2208,1,12142,similarity
10,0,A150,B950,Alpha, Beta,0.0,2883,1,12142,similarity
11,0,A150,B550,Alpha,Beta,2.0,3272,1,12142,similarity
12,0,A150,B650,Alpha,Beta,2.0,990,1,12142,similarity
13,0,A150,A50,Alpha,Alpha,4.0,3147,1,12142,similarity
14,0,A150,C1450,Alpha,Gamma,0.0,3517,1,12142,similarity
2,1,C1150,A350,Gamma,Alpha,2.0,5482,1,12142,similarity
3,1,C1150,B850,Gamma,Beta,6.0,3280,1,12142,similarity
4,1,C1150,C1250,Gamma,Gamma,6.0,961,1,12142,similarity
5,1,C1150,B750,Gamma,Beta,5.0,3295,1,12142,similarity
6,1,C1150,A250,Gamma,Alpha,0.9999999999999998,4712,1,12142,similarity
7,1,C1150,C1350,Gamma,Gamma,6.0,3091,1,12142,similarity
8,1,C1150,A450,Gamma,Alpha,2.0,5447,1,12142,similarity
9,1,C1150,C1050,Gamma,Gamma,5.0,4451,1,12142,similarity
10,1,C1150,B950,Gamma, Beta,5.0,736,1,12142,similarity
11,1,C1150,B550,Gamma,Beta,2.0,3529,1,12142,similarity
12,1,C1150,B650,Gamma,Beta,2.0,1394,1,12142,similarity
13,1,C1150,A50,Gamma,Alpha,0.0,2744,1,12142,similarity
14,1,C1150,C1450,Gamma,Gamma,5.0,2472,1,12142,similarity
3,2,A350,B850,Alpha,Beta,4.0,2262,1,12142,similarity
4,2,A350,C1250,Alpha,Gamma,0.9999999999999998,2738,1,12142,similarity
5,2,A350,B750,Alpha,Beta,2.0,2043,1,12142,similarity
6,2,A350,A250,Alpha,Alpha,5.0,4024,1,12142,similarity
7,2,A350,C1350,Alpha,Gamma,0.9999999999999998,2747,1,12142,similarity
8,2,A350,A450,Alpha,Alpha,6.0,3432,1,12142,similarity
9,2,A350,C1050,Alpha,Gamma,2.0,2804,1,12142,similarity
10,2,A350,B950,Alpha, Beta,2.0,3671,1,12142,similarity
11,2,A350,B550,Alpha,Beta,4.0,2217,1,12142,similarity
12,2,A350,B650,Alpha,Beta,5.0,2184,1,12142,similarity
13,2,A350,A50,Alpha,Alpha,4.0,2503,1,12142,similarity
14,2,A350,C1450,Alpha,Gamma,0.9999999999999998,2553,1,12142,similarity
4,3,B850,C1250,Beta,Gamma,5.0,2796,1,12142,similarity
5,3,B850,B750,Beta,Beta,6.0,4619,1,12142,similarity
6,3,B850,A250,Beta,Alpha,2.0,6730,1,12142,similarity
7,3,B850,C1350,Beta,Gamma,5.0,2866,1,12142,similarity
8,3,B850,A450,Beta,Alpha,5.0,422,1,12142,similarity
9,3,B850,C1050,Beta,Gamma,5.0,1261,1,12142,similarity
10,3,B850,B950,Beta, Beta,5.0,562,1,12142,similarity
11,3,B850,B550,Beta,Beta,4.0,2823,1,12142,similarity
12,3,B850,B650,Beta,Beta,4.0,726,1,12142,similarity
13,3,B850,A50,Beta,Alpha,0.9999999999999998,2050,1,12142,similarity
14,3,B850,C1450,Beta,Gamma,2.0,4787,1,12142,similarity
5,4,C1250,B750,Gamma,Beta,2.0,2831,1,12142,similarity
6,4,C1250,A250,Gamma,Alpha,0.9999999999999998,2859,1,12142,similarity
7,4,C1250,C1350,Gamma,Gamma,6.0,4478,1,12142,similarity
8,4,C1250,A450,Gamma,Alpha,2.0,5579,1,12142,similarity
9,4,C1250,C1050,Gamma,Gamma,5.0,2904,1,12142,similarity
10,4,C1250,B950,Gamma, Beta,5.0,988,1,12142,similarity
11,4,C1250,B550,Gamma,Beta,4.0,2290,1,12142,similarity
12,4,C1250,B650,Gamma,Beta,4.0,752,1,12142,similarity
13,4,C1250,A50,Gamma,Alpha,0.0,2415,1,12142,similarity
14,4,C1250,C1450,Gamma,Gamma,6.0,4949,1,12142,similarity
6,5,B750,A250,Beta,Alpha,3.0,2646,1,12142,similarity
7,5,B750,C1350,Beta,Gamma,2.0,5891,1,12142,similarity
8,5,B750,A450,Beta,Alpha,4.0,3513,1,12142,similarity
9,5,B750,C1050,Beta,Gamma,5.0,3246,1,12142,similarity
10,5,B750,B950,Beta, Beta,5.0,747,1,12142,similarity
11,5,B750,B550,Beta,Beta,5.0,917,1,12142,similarity
12,5,B750,B650,Beta,Beta,5.0,519,1,12142,similarity
13,5,B750,A50,Beta,Alpha,2.0,2537,1,12142,similarity
14,5,B750,C1450,Beta,Gamma,2.0,10091,1,12142,similarity
7,6,A250,C1350,Alpha,Gamma,0.9999999999999998,2082,1,12142,similarity
8,6,A250,A450,Alpha,Alpha,4.0,2603,1,12142,similarity
9,6,A250,C1050,Alpha,Gamma,2.0,2325,1,12142,similarity
10,6,A250,B950,Alpha, Beta,0.9999999999999998,2022,1,12142,similarity
11,6,A250,B550,Alpha,Beta,4.0,2214,1,12142,similarity
12,6,A250,B650,Alpha,Beta,4.0,1908,1,12142,similarity
13,6,A250,A50,Alpha,Alpha,5.0,2623,1,12142,similarity
14,6,A250,C1450,Alpha,Gamma,0.9999999999999998,2352,1,12142,similarity
8,7,C1350,A450,Gamma,Alpha,2.0,1997,1,12142,similarity
9,7,C1350,C1050,Gamma,Gamma,6.0,2909,1,12142,similarity
10,7,C1350,B950,Gamma, Beta,6.0,504,1,12142,similarity
11,7,C1350,B550,Gamma,Beta,5.0,3074,1,12142,similarity
12,7,C1350,B650,Gamma,Beta,5.0,767,1,12142,similarity
13,7,C1350,A50,Gamma,Alpha,0.0,6443,1,12142,similarity
14,7,C1350,C1450,Gamma,Gamma,6.0,3089,1,12142,similarity
9,8,A450,C1050,Alpha,Gamma,5.0,2701,1,12142,similarity
10,8,A450,B950,Alpha, Beta,5.0,552,1,12142,similarity
11,8,A450,B550,Alpha,Beta,5.0,1643,1,12142,similarity
12,8,A450,B650,Alpha,Beta,5.0,440,1,12142,similarity
13,8,A450,A50,Alpha,Alpha,5.0,405,1,12142,similarity
14,8,A450,C1450,Alpha,Gamma,2.0,4258,1,12142,similarity
10,9,C1050,B950,Gamma, Beta,6.0,3009,1,12142,similarity
11,9,C1050,B550,Gamma,Beta,4.0,2242,1,12142,similarity
12,9,C1050,B650,Gamma,Beta,4.0,1026,1,12142,similarity
13,9,C1050,A50,Gamma,Alpha,2.0,2200,1,12142,similarity
14,9,C1050,C1450,Gamma,Gamma,5.0,4678,1,12142,similarity
11,10,B950,B550, Beta,Beta,5.0,1252,1,12142,similarity
12,10,B950,B650, Beta,Beta,5.0,876,1,12142,similarity
13,10,B950,A50, Beta,Alpha,2.0,2403,1,12142,similarity
14,10,B950,C1450, Beta,Gamma,4.0,2032,1,12142,similarity
12,11,B550,B650,Beta,Beta,4.0,728,1,12142,similarity
13,11,B550,A50,Beta,Alpha,0.9999999999999998,2513,1,12142,similarity
14,11,B550,C1450,Beta,Gamma,0.9999999999999998,1771,1,12142,similarity
13,12,B650,A50,Beta,Alpha,0.9999999999999998,801,1,12142,similarity
14,12,B650,C1450,Beta,Gamma,0.9999999999999998,795,1,12142,similarity
14,13,A50,C1450,Alpha,Gamma,0.9999999999999998,1785,1,12142,similarity
1,0,C1350,C1450,Gamma,Gamma,4.0,7954,1,12145,similarity
2,0,C1350,B950,Gamma, Beta,0.9999999999999998,4770,1,12145,similarity
3,0,C1350,A250,Gamma,Alpha,0.0,4236,1,12145,similarity
4,0,C1350,A50,Gamma,Alpha,0.0,1310,1,12145,similarity
5,0,C1350,B650,Gamma,Beta,2.0,8641,1,12145,similarity
6,0,C1350,B750,Gamma,Beta,2.0,2629,1,12145,similarity
7,0,C1350,A150,Gamma,Alpha,0.0,3019,1,12145,similarity
8,0,C1350,B550,Gamma,Beta,0.9999999999999998,6985,1,12145,similarity
9,0,C1350,C1250,Gamma,Gamma,5.0,2351,1,12145,similarity
10,0,C1350,A450,Gamma,Alpha,2.0,2110,1,12145,similarity
11,0,C1350,B850,Gamma,Beta,2.0,2249,1,12145,similarity
12,0,C1350,C1150,Gamma,Gamma,4.0,3479,1,12145,similarity
13,0,C1350,A350,Gamma,Alpha,0.9999999999999998,2154,1,12145,similarity
14,0,C1350,C1050,Gamma,Gamma,4.0,3338,1,12145,similarity
2,1,C1450,B950,Gamma, Beta,3.0,2093,1,12145,similarity
3,1,C1450,A250,Gamma,Alpha,0.9999999999999998,1823,1,12145,similarity
4,1,C1450,A50,Gamma,Alpha,0.0,2061,1,12145,similarity
5,1,C1450,B650,Gamma,Beta,0.9999999999999998,2584,1,12145,similarity
6,1,C1450,B750,Gamma,Beta,2.0,2971,1,12145,similarity
7,1,C1450,A150,Gamma,Alpha,0.0,2032,1,12145,similarity
8,1,C1450,B550,Gamma,Beta,0.9999999999999998,2738,1,12145,similarity
9,1,C1450,C1250,Gamma,Gamma,5.0,5999,1,12145,similarity
10,1,C1450,A450,Gamma,Alpha,2.0,2639,1,12145,similarity
11,1,C1450,B850,Gamma,Beta,2.0,3338,1,12145,similarity
12,1,C1450,C1150,Gamma,Gamma,3.0,2531,1,12145,similarity
13,1,C1450,A350,Gamma,Alpha,0.9999999999999998,1914,1,12145,similarity
14,1,C1450,C1050,Gamma,Gamma,4.0,4753,1,12145,similarity
3,2,B950,A250, Beta,Alpha,0.9999999999999998,2627,1,12145,similarity
4,2,B950,A50, Beta,Alpha,0.0,1795,1,12145,similarity
5,2,B950,B650, Beta,Beta,2.0,2267,1,12145,similarity
6,2,B950,B750, Beta,Beta,4.0,3569,1,12145,similarity
7,2,B950,A150, Beta,Alpha,0.9999999999999998,1871,1,12145,similarity
8,2,B950,B550, Beta,Beta,2.0,3436,1,12145,similarity
9,2,B950,C1250, Beta,Gamma,3.0,5026,1,12145,similarity
10,2,B950,A450, Beta,Alpha,2.0,1675,1,12145,similarity
11,2,B950,B850, Beta,Beta,5.0,1859,1,12145,similarity
12,2,B950,C1150, Beta,Gamma,5.0,3088,1,12145,similarity
13,2,B950,A350, Beta,Alpha,2.0,2779,1,12145,similarity
14,2,B950,C1050, Beta,Gamma,5.0,1844,1,12145,similarity
4,3,A250,A50,Alpha,Alpha,2.0,2598,1,12145,similarity
5,3,A250,B650,Alpha,Beta,2.0,1451,1,12145,similarity
6,3,A250,B750,Alpha,Beta,2.0,1100,1,12145,similarity
7,3,A250,A150,Alpha,Alpha,5.0,2536,1,12145,similarity
8,3,A250,B550,Alpha,Beta,4.0,4573,1,12145,similarity
9,3,A250,C1250,Alpha,Gamma,2.0,2887,1,12145,similarity
10,3,A250,A450,Alpha,Alpha,4.0,5075,1,12145,similarity
11,3,A250,B850,Alpha,Beta,2.0,2798,1,12145,similarity
12,3,A250,C1150,Alpha,Gamma,0.9999999999999998,2166,1,12145,similarity
13,3,A250,A350,Alpha,Alpha,5.0,2835,1,12145,similarity
14,3,A250,C1050,Alpha,Gamma,0.9999999999999998,2633,1,12145,similarity
5,4,A50,B650,Alpha,Beta,0.0,1643,1,12145,similarity
6,4,A50,B750,Alpha,Beta,0.0,1520,1,12145,similarity
7,4,A50,A150,Alpha,Alpha,5.0,2402,1,12145,similarity
8,4,A50,B550,Alpha,Beta,0.9999999999999998,2787,1,12145,similarity
9,4,A50,C1250,Alpha,Gamma,0.0,1945,1,12145,similarity
10,4,A50,A450,Alpha,Alpha,0.9999999999999998,5140,1,12145,similarity
11,4,A50,B850,Alpha,Beta,0.0,1630,1,12145,similarity
12,4,A50,C1150,Alpha,Gamma,0.0,962,1,12145,similarity
13,4,A50,A350,Alpha,Alpha,2.0,3102,1,12145,similarity
14,4,A50,C1050,Alpha,Gamma,0.0,1628,1,12145,similarity
6,5,B650,B750,Beta,Beta,5.0,2146,1,12145,similarity
7,5,B650,A150,Beta,Alpha,2.0,2556,1,12145,similarity
8,5,B650,B550,Beta,Beta,5.0,2648,1,12145,similarity
9,5,B650,C1250,Beta,Gamma,5.0,3995,1,12145,similarity
10,5,B650,A450,Beta,Alpha,4.0,7812,1,12145,similarity
11,5,B650,B850,Beta,Beta,5.0,2348,1,12145,similarity
12,5,B650,C1150,Beta,Gamma,4.0,3811,1,12145,similarity
13,5,B650,A350,Beta,Alpha,3.0,1515,1,12145,similarity
14,5,B650,C1050,Beta,Gamma,3.0,2306,1,12145,similarity
7,6,B750,A150,Beta,Alpha,2.0,1538,1,12145,similarity
8,6,B750,B550,Beta,Beta,4.0,1800,1,12145,similarity
9,6,B750,C1250,Beta,Gamma,4.0,2714,1,12145,similarity
10,6,B750,A450,Beta,Alpha,3.0,1906,1,12145,similarity
11,6,B750,B850,Beta,Beta,5.0,2482,1,12145,similarity
12,6,B750,C1150,Beta,Gamma,4.0,1904,1,12145,similarity
13,6,B750,A350,Beta,Alpha,3.0,2195,1,12145,similarity
14,6,B750,C1050,Beta,Gamma,4.0,2027,1,12145,similarity
8,7,A150,B550,Alpha,Beta,2.0,2702,1,12145,similarity
9,7,A150,C1250,Alpha,Gamma,0.9999999999999998,1994,1,12145,similarity
10,7,A150,A450,Alpha,Alpha,3.0,2354,1,12145,similarity
11,7,A150,B850,Alpha,Beta,2.0,1647,1,12145,similarity
12,7,A150,C1150,Alpha,Gamma,0.9999999999999998,2402,1,12145,similarity
13,7,A150,A350,Alpha,Alpha,3.0,4678,1,12145,similarity
14,7,A150,C1050,Alpha,Gamma,0.9999999999999998,3147,1,12145,similarity
9,8,B550,C1250,Beta,Gamma,3.0,4916,1,12145,similarity
10,8,B550,A450,Beta,Alpha,5.0,1690,1,12145,similarity
11,8,B550,B850,Beta,Beta,4.0,2075,1,12145,similarity
12,8,B550,C1150,Beta,Gamma,2.0,4321,1,12145,similarity
13,8,B550,A350,Beta,Alpha,3.0,2466,1,12145,similarity
14,8,B550,C1050,Beta,Gamma,3.0,2259,1,12145,similarity
10,9,C1250,A450,Gamma,Alpha,2.0,2202,1,12145,similarity
11,9,C1250,B850,Gamma,Beta,3.0,3065,1,12145,similarity
12,9,C1250,C1150,Gamma,Gamma,5.0,1787,1,12145,similarity
13,9,C1250,A350,Gamma,Alpha,2.0,3901,1,12145,similarity
14,9,C1250,C1050,Gamma,Gamma,4.0,2641,1,12145,similarity
11,10,A450,B850,Alpha,Beta,3.0,2682,1,12145,similarity
12,10,A450,C1150,Alpha,Gamma,3.0,1193,1,12145,similarity
13,10,A450,A350,Alpha,Alpha,5.0,2369,1,12145,similarity
14,10,A450,C1050,Alpha,Gamma,4.0,1466,1,12145,similarity
12,11,B850,C1150,Beta,Gamma,4.0,3268,1,12145,similarity
13,11,B850,A350,Beta,Alpha,2.0,3870,1,12145,similarity
14,11,B850,C1050,Beta,Gamma,5.0,2586,1,12145,similarity
13,12,C1150,A350,Gamma,Alpha,2.0,3142,1,12145,similarity
14,12,C1150,C1050,Gamma,Gamma,5.0,1846,1,12145,similarity
14,13,A350,C1050,Alpha,Gamma,2.0,3603,1,12145,similarity
1,0,B750,A150,Alpha,Alpha,0.0,4026,1,12133,similarity
2,0,B750,B550,Beta,Beta,4.0,3410,1,12133,similarity
3,0,B750,C1050,Beta,Gamma,4.0,4043,1,12133,similarity
4,0,B750,A350,Beta,Alpha,2.0,4108,1,12133,similarity
5,0,B750,C1450,Beta,Gamma,0.9999999999999998,5077,1,12133,similarity
6,0,B750,C1150,Beta,Gamma,4.0,8490,1,12133,similarity
7,0,B750,A250,Beta,Alpha,2.0,2682,1,12133,similarity
8,0,B750,C1350,Beta,Gamma,2.0,2733,1,12133,similarity
9,0,B750,B950,Beta, Beta,5.0,3585,1,12133,similarity
10,0,B750,B850,Beta,Beta,6.0,3058,1,12133,similarity
11,0,B750,B650,Beta,Beta,6.0,2393,1,12133,similarity
12,0,B750,A50,Beta,Alpha,0.0,2794,1,12133,similarity
13,0,B750,A450,Beta,Alpha,4.0,3858,1,12133,similarity
14,0,B750,C1250,Beta,Gamma,4.0,4757,1,12133,similarity
2,1,A150,B550,Alpha,Beta,2.0,4194,1,12133,similarity
3,1,A150,C1050,Alpha,Gamma,0.9999999999999998,2354,1,12133,similarity
4,1,A150,A350,Alpha,Alpha,5.0,3492,1,12133,similarity
5,1,A150,C1450,Alpha,Gamma,0.0,2604,1,12133,similarity
6,1,A150,C1150,Alpha,Gamma,0.0,714,1,12133,similarity
7,1,A150,A250,Alpha,Alpha,6.0,2835,1,12133,similarity
8,1,A150,C1350,Alpha,Gamma,0.0,2978,1,12133,similarity
9,1,A150,B950,Alpha, Beta,0.0,787,1,12133,similarity
10,1,A150,B850,Alpha,Beta,0.0,906,1,12133,similarity
11,1,A150,B650,Alpha,Beta,0.9999999999999998,3575,1,12133,similarity
12,1,A150,A50,Alpha,Alpha,5.0,2794,1,12133,similarity
13,1,A150,A450,Alpha,Alpha,4.0,4187,1,12133,similarity
14,1,A150,C1250,Alpha,Gamma,0.0,5506,1,12133,similarity
3,2,B550,C1050,Beta,Gamma,2.0,4459,1,12133,similarity
4,2,B550,A350,Beta,Alpha,5.0,3009,1,12133,similarity
5,2,B550,C1450,Beta,Gamma,0.0,4334,1,12133,similarity
6,2,B550,C1150,Beta,Gamma,5.0,3477,1,12133,similarity
7,2,B550,A250,Beta,Alpha,4.0,4590,1,12133,similarity
8,2,B550,C1350,Beta,Gamma,2.0,2531,1,12133,similarity
9,2,B550,B950,Beta, Beta,4.0,2657,1,12133,similarity
10,2,B550,B850,Beta,Beta,5.0,2091,1,12133,similarity
11,2,B550,B650,Beta,Beta,6.0,2067,1,12133,similarity
12,2,B550,A50,Beta,Alpha,0.0,2850,1,12133,similarity
13,2,B550,A450,Beta,Alpha,6.0,2771,1,12133,similarity
14,2,B550,C1250,Beta,Gamma,2.0,3715,1,12133,similarity
4,3,C1050,A350,Gamma,Alpha,2.0,2602,1,12133,similarity
5,3,C1050,C1450,Gamma,Gamma,5.0,5026,1,12133,similarity
6,3,C1050,C1150,Gamma,Gamma,6.0,1940,1,12133,similarity
7,3,C1050,A250,Gamma,Alpha,0.9999999999999998,2930,1,12133,similarity
8,3,C1050,C1350,Gamma,Gamma,5.0,2171,1,12133,similarity
9,3,C1050,B950,Gamma, Beta,6.0,2060,1,12133,similarity
10,3,C1050,B850,Gamma,Beta,6.0,1418,1,12133,similarity
11,3,C1050,B650,Gamma,Beta,5.0,2482,1,12133,similarity
12,3,C1050,A50,Gamma,Alpha,0.0,2107,1,12133,similarity
13,3,C1050,A450,Gamma,Alpha,0.9999999999999998,2425,1,12133,similarity
14,3,C1050,C1250,Gamma,Gamma,6.0,2315,1,12133,similarity
5,4,A350,C1450,Alpha,Gamma,0.0,2826,1,12133,similarity
6,4,A350,C1150,Alpha,Gamma,0.9999999999999998,2912,1,12133,similarity
7,4,A350,A250,Alpha,Alpha,6.0,2213,1,12133,similarity
8,4,A350,C1350,Alpha,Gamma,0.0,3915,1,12133,similarity
9,4,A350,B950,Alpha, Beta,0.9999999999999998,1915,1,12133,similarity
10,4,A350,B850,Alpha,Beta,2.0,2427,1,12133,similarity
11,4,A350,B650,Alpha,Beta,4.0,1970,1,12133,similarity
12,4,A350,A50,Alpha,Alpha,0.0,5409,1,12133,similarity
13,4,A350,A450,Alpha,Alpha,6.0,3259,1,12133,similarity
14,4,A350,C1250,Alpha,Gamma,0.9999999999999998,3451,1,12133,similarity
6,5,C1450,C1150,Gamma,Gamma,5.0,2362,1,12133,similarity
7,5,C1450,A250,Gamma,Alpha,0.0,2980,1,12133,similarity
8,5,C1450,C1350,Gamma,Gamma,6.0,2234,1,12133,similarity
9,5,C1450,B950,Gamma, Beta,5.0,2314,1,12133,similarity
10,5,C1450,B850,Gamma,Beta,4.0,2473,1,12133,similarity
11,5,C1450,B650,Gamma,Beta,2.0,3435,1,12133,similarity
12,5,C1450,A50,Gamma,Alpha,0.0,2081,1,12133,similarity
13,5,C1450,A450,Gamma,Alpha,0.9999999999999998,4390,1,12133,similarity
14,5,C1450,C1250,Gamma,Gamma,6.0,2821,1,12133,similarity
7,6,C1150,A250,Gamma,Alpha,0.9999999999999998,2746,1,12133,similarity
8,6,C1150,C1350,Gamma,Gamma,6.0,2090,1,12133,similarity
9,6,C1150,B950,Gamma, Beta,6.0,1739,1,12133,similarity
10,6,C1150,B850,Gamma,Beta,5.0,6288,1,12133,similarity
11,6,C1150,B650,Gamma,Beta,4.0,3283,1,12133,similarity
12,6,C1150,A50,Gamma,Alpha,0.0,2058,1,12133,similarity
13,6,C1150,A450,Gamma,Alpha,2.0,6243,1,12133,similarity
14,6,C1150,C1250,Gamma,Gamma,6.0,1776,1,12133,similarity
8,7,A250,C1350,Alpha,Gamma,0.9999999999999998,3280,1,12133,similarity
9,7,A250,B950,Alpha, Beta,0.9999999999999998,1371,1,12133,similarity
10,7,A250,B850,Alpha,Beta,0.9999999999999998,900,1,12133,similarity
11,7,A250,B650,Alpha,Beta,2.0,4147,1,12133,similarity
12,7,A250,A50,Alpha,Alpha,4.0,2403,1,12133,similarity
13,7,A250,A450,Alpha,Alpha,5.0,2090,1,12133,similarity
14,7,A250,C1250,Alpha,Gamma,0.9999999999999998,6609,1,12133,similarity
9,8,C1350,B950,Gamma, Beta,5.0,2507,1,12133,similarity
10,8,C1350,B850,Gamma,Beta,5.0,1985,1,12133,similarity
11,8,C1350,B650,Gamma,Beta,4.0,2201,1,12133,similarity
12,8,C1350,A50,Gamma,Alpha,0.0,3947,1,12133,similarity
13,8,C1350,A450,Gamma,Alpha,0.9999999999999998,5848,1,12133,similarity
14,8,C1350,C1250,Gamma,Gamma,6.0,2014,1,12133,similarity
10,9,B950,B850, Beta,Beta,6.0,1235,1,12133,similarity
11,9,B950,B650, Beta,Beta,6.0,1148,1,12133,similarity
12,9,B950,A50, Beta,Alpha,0.0,2042,1,12133,similarity
13,9,B950,A450, Beta,Alpha,4.0,4818,1,12133,similarity
14,9,B950,C1250, Beta,Gamma,5.0,2096,1,12133,similarity
11,10,B850,B650,Beta,Beta,5.0,2739,1,12133,similarity
12,10,B850,A50,Beta,Alpha,0.0,2473,1,12133,similarity
13,10,B850,A450,Beta,Alpha,2.0,2835,1,12133,similarity
14,10,B850,C1250,Beta,Gamma,5.0,1853,1,12133,similarity
12,11,B650,A50,Beta,Alpha,0.0,4170,1,12133,similarity
13,11,B650,A450,Beta,Alpha,5.0,4915,1,12133,similarity
14,11,B650,C1250,Beta,Gamma,4.0,4443,1,12133,similarity
13,12,A50,A450,Alpha,Alpha,5.0,3240,1,12133,similarity
14,12,A50,C1250,Alpha,Gamma,0.0,3115,1,12133,similarity
14,13,A450,C1250,Alpha,Gamma,2.0,4181,1,12133,similarity
1,0,B750,A350,Alpha,Alpha,2.0,13824,1,12162,similarity
2,0,B750,B950,Beta, Beta,4.0,6566,1,12162,similarity
3,0,B750,C1250,Beta,Gamma,3.0,3946,1,12162,similarity
4,0,B750,C1350,Beta,Gamma,2.0,3013,1,12162,similarity
5,0,B750,A450,Beta,Alpha,4.0,12962,1,12162,similarity
6,0,B750,A150,Beta,Alpha,2.0,6511,1,12162,similarity
7,0,B750,A50,Beta,Alpha,2.0,4506,1,12162,similarity
8,0,B750,A250,Beta,Alpha,2.0,2314,1,12162,similarity
9,0,B750,C1450,Beta,Gamma,3.0,4358,1,12162,similarity
10,0,B750,C1150,Beta,Gamma,3.0,5501,1,12162,similarity
11,0,B750,B550,Beta,Beta,5.0,3055,1,12162,similarity
12,0,B750,B650,Beta,Beta,5.0,1781,1,12162,similarity
13,0,B750,B850,Beta,Beta,5.0,2642,1,12162,similarity
14,0,B750,C1050,Beta,Gamma,4.0,4905,1,12162,similarity
2,1,A350,B950,Alpha, Beta,3.0,2962,1,12162,similarity
3,1,A350,C1250,Alpha,Gamma,0.9999999999999998,11697,1,12162,similarity
4,1,A350,C1350,Alpha,Gamma,0.9999999999999998,9244,1,12162,similarity
5,1,A350,A450,Alpha,Alpha,5.0,2979,1,12162,similarity
6,1,A350,A150,Alpha,Alpha,4.0,4634,1,12162,similarity
7,1,A350,A50,Alpha,Alpha,2.0,3507,1,12162,similarity
8,1,A350,A250,Alpha,Alpha,3.0,2810,1,12162,similarity
9,1,A350,C1450,Alpha,Gamma,0.9999999999999998,5522,1,12162,similarity
10,1,A350,C1150,Alpha,Gamma,2.0,3211,1,12162,similarity
11,1,A350,B550,Alpha,Beta,3.0,5515,1,12162,similarity
12,1,A350,B650,Alpha,Beta,3.0,3485,1,12162,similarity
13,1,A350,B850,Alpha,Beta,2.0,3190,1,12162,similarity
14,1,A350,C1050,Alpha,Gamma,2.0,3171,1,12162,similarity
3,2,B950,C1250, Beta,Gamma,4.0,11661,1,12162,similarity
4,2,B950,C1350, Beta,Gamma,4.0,4205,1,12162,similarity
5,2,B950,A450, Beta,Alpha,2.0,3845,1,12162,similarity
6,2,B950,A150, Beta,Alpha,0.9999999999999998,2362,1,12162,similarity
7,2,B950,A50, Beta,Alpha,0.9999999999999998,2064,1,12162,similarity
8,2,B950,A250, Beta,Alpha,2.0,3455,1,12162,similarity
9,2,B950,C1450, Beta,Gamma,4.0,3544,1,12162,similarity
10,2,B950,C1150, Beta,Gamma,5.0,6266,1,12162,similarity
11,2,B950,B550, Beta,Beta,3.0,4642,1,12162,similarity
12,2,B950,B650, Beta,Beta,3.0,1666,1,12162,similarity
13,2,B950,B850, Beta,Beta,5.0,4123,1,12162,similarity
14,2,B950,C1050, Beta,Gamma,5.0,1927,1,12162,similarity
4,3,C1250,C1350,Gamma,Gamma,5.0,2732,1,12162,similarity
5,3,C1250,A450,Gamma,Alpha,2.0,11123,1,12162,similarity
6,3,C1250,A150,Gamma,Alpha,0.9999999999999998,2740,1,12162,similarity
7,3,C1250,A50,Gamma,Alpha,0.0,2517,1,12162,similarity
8,3,C1250,A250,Gamma,Alpha,2.0,1947,1,12162,similarity
9,3,C1250,C1450,Gamma,Gamma,5.0,2675,1,12162,similarity
10,3,C1250,C1150,Gamma,Gamma,5.0,1042,1,12162,similarity
11,3,C1250,B550,Gamma,Beta,3.0,2226,1,12162,similarity
12,3,C1250,B650,Gamma,Beta,3.0,1220,1,12162,similarity
13,3,C1250,B850,Gamma,Beta,3.0,905,1,12162,similarity
14,3,C1250,C1050,Gamma,Gamma,3.0,1467,1,12162,similarity
5,4,C1350,A450,Gamma,Alpha,2.0,8685,1,12162,similarity
6,4,C1350,A150,Gamma,Alpha,0.9999999999999998,2044,1,12162,similarity
7,4,C1350,A50,Gamma,Alpha,0.0,2138,1,12162,similarity
8,4,C1350,A250,Gamma,Alpha,0.9999999999999998,4559,1,12162,similarity
9,4,C1350,C1450,Gamma,Gamma,6.0,3084,1,12162,similarity
10,4,C1350,C1150,Gamma,Gamma,5.0,4556,1,12162,similarity
11,4,C1350,B550,Gamma,Beta,3.0,2113,1,12162,similarity
12,4,C1350,B650,Gamma,Beta,4.0,1667,1,12162,similarity
13,4,C1350,B850,Gamma,Beta,4.0,2587,1,12162,similarity
14,4,C1350,C1050,Gamma,Gamma,5.0,1850,1,12162,similarity
6,5,A450,A150,Alpha,Alpha,3.0,3227,1,12162,similarity
7,5,A450,A50,Alpha,Alpha,2.0,1545,1,12162,similarity
8,5,A450,A250,Alpha,Alpha,3.0,2178,1,12162,similarity
9,5,A450,C1450,Alpha,Gamma,3.0,3258,1,12162,similarity
10,5,A450,C1150,Alpha,Gamma,3.0,3257,1,12162,similarity
11,5,A450,B550,Alpha,Beta,5.0,4341,1,12162,similarity
12,5,A450,B650,Alpha,Beta,5.0,1155,1,12162,similarity
13,5,A450,B850,Alpha,Beta,4.0,2179,1,12162,similarity
14,5,A450,C1050,Alpha,Gamma,3.0,1955,1,12162,similarity
7,6,A150,A50,Alpha,Alpha,4.0,2834,1,12162,similarity
8,6,A150,A250,Alpha,Alpha,4.0,2907,1,12162,similarity
9,6,A150,C1450,Alpha,Gamma,2.0,3522,1,12162,similarity
10,6,A150,C1150,Alpha,Gamma,0.9999999999999998,2714,1,12162,similarity
11,6,A150,B550,Alpha,Beta,2.0,2239,1,12162,similarity
12,6,A150,B650,Alpha,Beta,2.0,912,1,12162,similarity
13,6,A150,B850,Alpha,Beta,2.0,1009,1,12162,similarity
14,6,A150,C1050,Alpha,Gamma,2.0,2833,1,12162,similarity
8,7,A50,A250,Alpha,Alpha,3.0,2738,1,12162,similarity
9,7,A50,C1450,Alpha,Gamma,0.0,3627,1,12162,similarity
10,7,A50,C1150,Alpha,Gamma,0.9999999999999998,19181,1,12162,similarity
11,7,A50,B550,Alpha,Beta,2.0,3203,1,12162,similarity
12,7,A50,B650,Alpha,Beta,2.0,1169,1,12162,similarity
13,7,A50,B850,Alpha,Beta,2.0,565,1,12162,similarity
14,7,A50,C1050,Alpha,Gamma,0.9999999999999998,1888,1,12162,similarity
9,8,A250,C1450,Alpha,Gamma,0.9999999999999998,3799,1,12162,similarity
10,8,A250,C1150,Alpha,Gamma,0.9999999999999998,728,1,12162,similarity
11,8,A250,B550,Alpha,Beta,3.0,2557,1,12162,similarity
12,8,A250,B650,Alpha,Beta,3.0,763,1,12162,similarity
13,8,A250,B850,Alpha,Beta,3.0,667,1,12162,similarity
14,8,A250,C1050,Alpha,Gamma,2.0,5570,1,12162,similarity
10,9,C1450,C1150,Gamma,Gamma,4.0,2098,1,12162,similarity
11,9,C1450,B550,Gamma,Beta,3.0,1707,1,12162,similarity
12,9,C1450,B650,Gamma,Beta,3.0,2449,1,12162,similarity
13,9,C1450,B850,Gamma,Beta,3.0,3933,1,12162,similarity
14,9,C1450,C1050,Gamma,Gamma,4.0,1875,1,12162,similarity
11,10,C1150,B550,Gamma,Beta,3.0,2266,1,12162,similarity
12,10,C1150,B650,Gamma,Beta,3.0,987,1,12162,similarity
13,10,C1150,B850,Gamma,Beta,4.0,1348,1,12162,similarity
14,10,C1150,C1050,Gamma,Gamma,5.0,1867,1,12162,similarity
12,11,B550,B650,Beta,Beta,4.0,8930,1,12162,similarity
13,11,B550,B850,Beta,Beta,4.0,3500,1,12162,similarity
14,11,B550,C1050,Beta,Gamma,3.0,1948,1,12162,similarity
13,12,B650,B850,Beta,Beta,4.0,1882,1,12162,similarity
14,12,B650,C1050,Beta,Gamma,4.0,4035,1,12162,similarity
14,13,B850,C1050,Beta,Gamma,5.0,2395,1,12162,similarity
1,0,C1350,C1250,Gamma,Gamma,3.0,14000,1,12184,similarity
2,0,C1350,C1450,Gamma,Gamma,4.0,4195,1,12184,similarity
3,0,C1350,B650,Gamma,Beta,0.9999999999999998,2632,1,12184,similarity
4,0,C1350,B850,Gamma,Beta,0.9999999999999998,1398,1,12184,similarity
5,0,C1350,C1150,Gamma,Gamma,2.0,5019,1,12184,similarity
6,0,C1350,B550,Gamma,Beta,0.0,2704,1,12184,similarity
7,0,C1350,A450,Gamma,Alpha,0.0,634,1,12184,similarity
8,0,C1350,C1050,Gamma,Gamma,3.0,3314,1,12184,similarity
9,0,C1350,A50,Gamma,Alpha,0.0,4012,1,12184,similarity
10,0,C1350,B750,Gamma,Beta,0.9999999999999998,2744,1,12184,similarity
11,0,C1350,A350,Gamma,Alpha,0.9999999999999998,1746,1,12184,similarity
12,0,C1350,A150,Gamma,Alpha,0.0,3115,1,12184,similarity
13,0,C1350,A250,Gamma,Alpha,0.0,3154,1,12184,similarity
14,0,C1350,B950,Gamma, Beta,2.0,2701,1,12184,similarity
2,1,C1250,C1450,Gamma,Gamma,2.0,2592,1,12184,similarity
3,1,C1250,B650,Gamma,Beta,0.9999999999999998,3671,1,12184,similarity
4,1,C1250,B850,Gamma,Beta,0.9999999999999998,1317,1,12184,similarity
5,1,C1250,C1150,Gamma,Gamma,5.0,3583,1,12184,similarity
6,1,C1250,B550,Gamma,Beta,2.0,3785,1,12184,similarity
7,1,C1250,A450,Gamma,Alpha,0.9999999999999998,2171,1,12184,similarity
8,1,C1250,C1050,Gamma,Gamma,5.0,5540,1,12184,similarity
9,1,C1250,A50,Gamma,Alpha,0.0,2867,1,12184,similarity
10,1,C1250,B750,Gamma,Beta,0.9999999999999998,3467,1,12184,similarity
11,1,C1250,A350,Gamma,Alpha,0.9999999999999998,1612,1,12184,similarity
12,1,C1250,A150,Gamma,Alpha,0.0,3087,1,12184,similarity
13,1,C1250,A250,Gamma,Alpha,0.0,850,1,12184,similarity
14,1,C1250,B950,Gamma, Beta,4.0,3218,1,12184,similarity
3,2,C1450,B650,Gamma,Beta,0.9999999999999998,8416,1,12184,similarity
4,2,C1450,B850,Gamma,Beta,0.9999999999999998,1086,1,12184,similarity
5,2,C1450,C1150,Gamma,Gamma,3.0,3763,1,12184,similarity
6,2,C1450,B550,Gamma,Beta,0.9999999999999998,3330,1,12184,similarity
7,2,C1450,A450,Gamma,Alpha,0.9999999999999998,453,1,12184,similarity
8,2,C1450,C1050,Gamma,Gamma,2.0,4599,1,12184,similarity
9,2,C1450,A50,Gamma,Alpha,0.0,2045,1,12184,similarity
10,2,C1450,B750,Gamma,Beta,0.0,1002,1,12184,similarity
11,2,C1450,A350,Gamma,Alpha,0.0,3638,1,12184,similarity
12,2,C1450,A150,Gamma,Alpha,0.0,1125,1,12184,similarity
13,2,C1450,A250,Gamma,Alpha,0.0,768,1,12184,similarity
14,2,C1450,B950,Gamma, Beta,2.0,2417,1,12184,similarity
4,3,B650,B850,Beta,Beta,4.0,7086,1,12184,similarity
5,3,B650,C1150,Beta,Gamma,3.0,1979,1,12184,similarity
6,3,B650,B550,Beta,Beta,4.0,3875,1,12184,similarity
7,3,B650,A450,Beta,Alpha,4.0,1310,1,12184,similarity
8,3,B650,C1050,Beta,Gamma,3.0,1783,1,12184,similarity
9,3,B650,A50,Beta,Alpha,0.0,1956,1,12184,similarity
10,3,B650,B750,Beta,Beta,5.0,3033,1,12184,similarity
11,3,B650,A350,Beta,Alpha,4.0,1836,1,12184,similarity
12,3,B650,A150,Beta,Alpha,0.9999999999999998,4778,1,12184,similarity
13,3,B650,A250,Beta,Alpha,0.9999999999999998,808,1,12184,similarity
14,3,B650,B950,Beta, Beta,4.0,2562,1,12184,similarity
5,4,B850,C1150,Beta,Gamma,3.0,2133,1,12184,similarity
6,4,B850,B550,Beta,Beta,3.0,1176,1,12184,similarity
7,4,B850,A450,Beta,Alpha,3.0,1157,1,12184,similarity
8,4,B850,C1050,Beta,Gamma,5.0,4747,1,12184,similarity
9,4,B850,A50,Beta,Alpha,0.0,2851,1,12184,similarity
10,4,B850,B750,Beta,Beta,6.0,2692,1,12184,similarity
11,4,B850,A350,Beta,Alpha,2.0,3985,1,12184,similarity
12,4,B850,A150,Beta,Alpha,0.9999999999999998,2874,1,12184,similarity
13,4,B850,A250,Beta,Alpha,0.9999999999999998,9794,1,12184,similarity
14,4,B850,B950,Beta, Beta,6.0,2912,1,12184,similarity
6,5,C1150,B550,Gamma,Beta,3.0,5978,1,12184,similarity
7,5,C1150,A450,Gamma,Alpha,3.0,618,1,12184,similarity
8,5,C1150,C1050,Gamma,Gamma,6.0,2302,1,12184,similarity
9,5,C1150,A50,Gamma,Alpha,0.0,2986,1,12184,similarity
10,5,C1150,B750,Gamma,Beta,3.0,2763,1,12184,similarity
11,5,C1150,A350,Gamma,Alpha,3.0,686,1,12184,similarity
12,5,C1150,A150,Gamma,Alpha,0.9999999999999998,4093,1,12184,similarity
13,5,C1150,A250,Gamma,Alpha,0.9999999999999998,1071,1,12184,similarity
14,5,C1150,B950,Gamma, Beta,5.0,5116,1,12184,similarity
7,6,B550,A450,Beta,Alpha,6.0,2354,1,12184,similarity
8,6,B550,C1050,Beta,Gamma,3.0,2502,1,12184,similarity
9,6,B550,A50,Beta,Alpha,0.0,2090,1,12184,similarity
10,6,B550,B750,Beta,Beta,5.0,3171,1,12184,similarity
11,6,B550,A350,Beta,Alpha,5.0,1081,1,12184,similarity
12,6,B550,A150,Beta,Alpha,2.0,2158,1,12184,similarity
13,6,B550,A250,Beta,Alpha,2.0,752,1,12184,similarity
14,6,B550,B950,Beta, Beta,2.0,2505,1,12184,similarity
8,7,A450,C1050,Alpha,Gamma,2.0,635,1,12184,similarity
9,7,A450,A50,Alpha,Alpha,0.9999999999999998,10562,1,12184,similarity
10,7,A450,B750,Alpha,Beta,3.0,2768,1,12184,similarity
11,7,A450,A350,Alpha,Alpha,6.0,3183,1,12184,similarity
12,7,A450,A150,Alpha,Alpha,3.0,3837,1,12184,similarity
13,7,A450,A250,Alpha,Alpha,3.0,605,1,12184,similarity
14,7,A450,B950,Alpha, Beta,3.0,3498,1,12184,similarity
9,8,C1050,A50,Gamma,Alpha,0.0,2162,1,12184,similarity
10,8,C1050,B750,Gamma,Beta,4.0,2860,1,12184,similarity
11,8,C1050,A350,Gamma,Alpha,3.0,2417,1,12184,similarity
12,8,C1050,A150,Gamma,Alpha,2.0,2032,1,12184,similarity
13,8,C1050,A250,Gamma,Alpha,2.0,2770,1,12184,similarity
14,8,C1050,B950,Gamma, Beta,6.0,2482,1,12184,similarity
10,9,A50,B750,Alpha,Beta,0.0,5690,1,12184,similarity
11,9,A50,A350,Alpha,Alpha,0.0,1803,1,12184,similarity
12,9,A50,A150,Alpha,Alpha,4.0,2866,1,12184,similarity
13,9,A50,A250,Alpha,Alpha,4.0,2142,1,12184,similarity
14,9,A50,B950,Alpha, Beta,0.0,3367,1,12184,similarity
11,10,B750,A350,Beta,Alpha,3.0,4099,1,12184,similarity
12,10,B750,A150,Beta,Alpha,2.0,2393,1,12184,similarity
13,10,B750,A250,Beta,Alpha,2.0,2256,1,12184,similarity
14,10,B750,B950,Beta, Beta,5.0,6475,1,12184,similarity
12,11,A350,A150,Alpha,Alpha,5.0,2394,1,12184,similarity
13,11,A350,A250,Alpha,Alpha,5.0,583,1,12184,similarity
14,11,A350,B950,Alpha, Beta,4.0,2007,1,12184,similarity
13,12,A150,A250,Alpha,Alpha,5.0,3115,1,12184,similarity
14,12,A150,B950,Alpha, Beta,0.9999999999999998,4000,1,12184,similarity
14,13,A250,B950,Alpha, Beta,0.9999999999999998,1819,1,12184,similarity
1,0,A450,B950, Beta, Beta,2.0,10251,1,12187,similarity
2,0,A450,B550,Alpha,Beta,4.0,3479,1,12187,similarity
3,0,A450,A50,Alpha,Alpha,0.9999999999999998,3715,1,12187,similarity
4,0,A450,C1150,Alpha,Gamma,3.0,4985,1,12187,similarity
5,0,A450,A150,Alpha,Alpha,4.0,3491,1,12187,similarity
6,0,A450,B850,Alpha,Beta,4.0,1748,1,12187,similarity
7,0,A450,A350,Alpha,Alpha,5.0,2626,1,12187,similarity
8,0,A450,C1450,Alpha,Gamma,0.9999999999999998,3580,1,12187,similarity
9,0,A450,C1350,Alpha,Gamma,2.0,3546,1,12187,similarity
10,0,A450,B650,Alpha,Beta,5.0,2728,1,12187,similarity
11,0,A450,C1050,Alpha,Gamma,3.0,2446,1,12187,similarity
12,0,A450,C1250,Alpha,Gamma,2.0,2099,1,12187,similarity
13,0,A450,A250,Alpha,Alpha,5.0,4418,1,12187,similarity
14,0,A450,B750,Alpha,Beta,5.0,3347,1,12187,similarity
2,1,B950,B550, Beta,Beta,4.0,2651,1,12187,similarity
3,1,B950,A50, Beta,Alpha,0.9999999999999998,2611,1,12187,similarity
4,1,B950,C1150, Beta,Gamma,5.0,3402,1,12187,similarity
5,1,B950,A150, Beta,Alpha,0.9999999999999998,5482,1,12187,similarity
6,1,B950,B850, Beta,Beta,5.0,2273,1,12187,similarity
7,1,B950,A350, Beta,Alpha,4.0,2499,1,12187,similarity
8,1,B950,C1450, Beta,Gamma,3.0,2403,1,12187,similarity
9,1,B950,C1350, Beta,Gamma,3.0,2132,1,12187,similarity
10,1,B950,B650, Beta,Beta,5.0,3283,1,12187,similarity
11,1,B950,C1050, Beta,Gamma,6.0,3922,1,12187,similarity
12,1,B950,C1250, Beta,Gamma,5.0,4740,1,12187,similarity
13,1,B950,A250, Beta,Alpha,3.0,5379,1,12187,similarity
14,1,B950,B750, Beta,Beta,5.0,4015,1,12187,similarity
3,2,B550,A50,Beta,Alpha,0.9999999999999998,2704,1,12187,similarity
4,2,B550,C1150,Beta,Gamma,3.0,2293,1,12187,similarity
5,2,B550,A150,Beta,Alpha,2.0,2003,1,12187,similarity
6,2,B550,B850,Beta,Beta,5.0,2446,1,12187,similarity
7,2,B550,A350,Beta,Alpha,4.0,5043,1,12187,similarity
8,2,B550,C1450,Beta,Gamma,0.9999999999999998,2431,1,12187,similarity
9,2,B550,C1350,Beta,Gamma,0.9999999999999998,1999,1,12187,similarity
10,2,B550,B650,Beta,Beta,6.0,7688,1,12187,similarity
11,2,B550,C1050,Beta,Gamma,4.0,3474,1,12187,similarity
12,2,B550,C1250,Beta,Gamma,3.0,1739,1,12187,similarity
13,2,B550,A250,Beta,Alpha,4.0,3975,1,12187,similarity
14,2,B550,B750,Beta,Beta,6.0,3882,1,12187,similarity
4,3,A50,C1150,Alpha,Gamma,0.0,3453,1,12187,similarity
5,3,A50,A150,Alpha,Alpha,4.0,5112,1,12187,similarity
6,3,A50,B850,Alpha,Beta,0.9999999999999998,2859,1,12187,similarity
7,3,A50,A350,Alpha,Alpha,2.0,7360,1,12187,similarity
8,3,A50,C1450,Alpha,Gamma,0.0,2441,1,12187,similarity
9,3,A50,C1350,Alpha,Gamma,0.0,2420,1,12187,similarity
10,3,A50,B650,Alpha,Beta,0.9999999999999998,4781,1,12187,similarity
11,3,A50,C1050,Alpha,Gamma,0.0,2571,1,12187,similarity
12,3,A50,C1250,Alpha,Gamma,0.0,1210,1,12187,similarity
13,3,A50,A250,Alpha,Alpha,3.0,2632,1,12187,similarity
14,3,A50,B750,Alpha,Beta,0.9999999999999998,2343,1,12187,similarity
5,4,C1150,A150,Gamma,Alpha,0.9999999999999998,3905,1,12187,similarity
6,4,C1150,B850,Gamma,Beta,5.0,4771,1,12187,similarity
7,4,C1150,A350,Gamma,Alpha,3.0,4171,1,12187,similarity
8,4,C1150,C1450,Gamma,Gamma,4.0,2466,1,12187,similarity
9,4,C1150,C1350,Gamma,Gamma,6.0,3226,1,12187,similarity
10,4,C1150,B650,Gamma,Beta,4.0,2858,1,12187,similarity
11,4,C1150,C1050,Gamma,Gamma,6.0,4317,1,12187,similarity
12,4,C1150,C1250,Gamma,Gamma,6.0,1483,1,12187,similarity
13,4,C1150,A250,Gamma,Alpha,2.0,3643,1,12187,similarity
14,4,C1150,B750,Gamma,Beta,4.0,4027,1,12187,similarity
6,5,A150,B850,Alpha,Beta,2.0,2413,1,12187,similarity
7,5,A150,A350,Alpha,Alpha,5.0,6598,1,12187,similarity
8,5,A150,C1450,Alpha,Gamma,0.9999999999999998,3194,1,12187,similarity
9,5,A150,C1350,Alpha,Gamma,0.9999999999999998,1611,1,12187,similarity
10,5,A150,B650,Alpha,Beta,3.0,2089,1,12187,similarity
11,5,A150,C1050,Alpha,Gamma,2.0,1947,1,12187,similarity
12,5,A150,C1250,Alpha,Gamma,0.9999999999999998,1747,1,12187,similarity
13,5,A150,A250,Alpha,Alpha,5.0,3194,1,12187,similarity
14,5,A150,B750,Alpha,Beta,2.0,3947,1,12187,similarity
7,6,B850,A350,Beta,Alpha,4.0,1821,1,12187,similarity
8,6,B850,C1450,Beta,Gamma,4.0,3803,1,12187,similarity
9,6,B850,C1350,Beta,Gamma,4.0,1900,1,12187,similarity
10,6,B850,B650,Beta,Beta,5.0,2290,1,12187,similarity
11,6,B850,C1050,Beta,Gamma,5.0,1340,1,12187,similarity
12,6,B850,C1250,Beta,Gamma,4.0,2384,1,12187,similarity
13,6,B850,A250,Beta,Alpha,3.0,2339,1,12187,similarity
14,6,B850,B750,Beta,Beta,6.0,2113,1,12187,similarity
8,7,A350,C1450,Alpha,Gamma,2.0,2979,1,12187,similarity
9,7,A350,C1350,Alpha,Gamma,2.0,2035,1,12187,similarity
10,7,A350,B650,Alpha,Beta,4.0,2347,1,12187,similarity
11,7,A350,C1050,Alpha,Gamma,3.0,1667,1,12187,similarity
12,7,A350,C1250,Alpha,Gamma,2.0,1455,1,12187,similarity
13,7,A350,A250,Alpha,Alpha,5.0,3011,1,12187,similarity
14,7,A350,B750,Alpha,Beta,4.0,2442,1,12187,similarity
9,8,C1450,C1350,Gamma,Gamma,6.0,2649,1,12187,similarity
10,8,C1450,B650,Gamma,Beta,3.0,2393,1,12187,similarity
11,8,C1450,C1050,Gamma,Gamma,4.0,2897,1,12187,similarity
12,8,C1450,C1250,Gamma,Gamma,5.0,2089,1,12187,similarity
13,8,C1450,A250,Gamma,Alpha,2.0,2674,1,12187,similarity
14,8,C1450,B750,Gamma,Beta,3.0,2013,1,12187,similarity
10,9,C1350,B650,Gamma,Beta,3.0,1115,1,12187,similarity
11,9,C1350,C1050,Gamma,Gamma,5.0,2667,1,12187,similarity
12,9,C1350,C1250,Gamma,Gamma,5.0,1147,1,12187,similarity
13,9,C1350,A250,Gamma,Alpha,2.0,3386,1,12187,similarity
14,9,C1350,B750,Gamma,Beta,3.0,2922,1,12187,similarity
11,10,B650,C1050,Beta,Gamma,4.0,3116,1,12187,similarity
12,10,B650,C1250,Beta,Gamma,3.0,1867,1,12187,similarity
13,10,B650,A250,Beta,Alpha,3.0,1499,1,12187,similarity
14,10,B650,B750,Beta,Beta,6.0,2820,1,12187,similarity
12,11,C1050,C1250,Gamma,Gamma,5.0,3930,1,12187,similarity
13,11,C1050,A250,Gamma,Alpha,2.0,2004,1,12187,similarity
14,11,C1050,B750,Gamma,Beta,4.0,2394,1,12187,similarity
13,12,C1250,A250,Gamma,Alpha,0.9999999999999998,3195,1,12187,similarity
14,12,C1250,B750,Gamma,Beta,4.0,3123,1,12187,similarity
14,13,A250,B750,Alpha,Beta,3.0,2913,1,12187,similarity
1,0,C1450,A150,Alpha,Alpha,0.0,6332,1,12190,similarity
2,0,C1450,A350,Gamma,Alpha,0.0,3562,1,12190,similarity
3,0,C1450,B650,Gamma,Beta,0.9999999999999998,5695,1,12190,similarity
4,0,C1450,C1350,Gamma,Gamma,4.0,4705,1,12190,similarity
5,0,C1450,B950,Gamma, Beta,3.0,1843,1,12190,similarity
6,0,C1450,A50,Gamma,Alpha,0.0,1723,1,12190,similarity
7,0,C1450,C1150,Gamma,Gamma,3.0,2954,1,12190,similarity
8,0,C1450,B750,Gamma,Beta,2.0,1497,1,12190,similarity
9,0,C1450,A450,Gamma,Alpha,0.9999999999999998,1945,1,12190,similarity
10,0,C1450,B550,Gamma,Beta,2.0,1899,1,12190,similarity
11,0,C1450,A250,Gamma,Alpha,0.9999999999999998,1522,1,12190,similarity
12,0,C1450,B850,Gamma,Beta,3.0,2635,1,12190,similarity
13,0,C1450,C1050,Gamma,Gamma,4.0,1354,1,12190,similarity
14,0,C1450,C1250,Gamma,Gamma,5.0,1611,1,12190,similarity
2,1,A150,A350,Alpha,Alpha,4.0,9555,1,12190,similarity
3,1,A150,B650,Alpha,Beta,3.0,3203,1,12190,similarity
4,1,A150,C1350,Alpha,Gamma,0.9999999999999998,2867,1,12190,similarity
5,1,A150,B950,Alpha, Beta,2.0,1986,1,12190,similarity
6,1,A150,A50,Alpha,Alpha,5.0,2619,1,12190,similarity
7,1,A150,C1150,Alpha,Gamma,0.9999999999999998,3005,1,12190,similarity
8,1,A150,B750,Alpha,Beta,2.0,1747,1,12190,similarity
9,1,A150,A450,Alpha,Alpha,3.0,1723,1,12190,similarity
10,1,A150,B550,Alpha,Beta,3.0,1394,1,12190,similarity
11,1,A150,A250,Alpha,Alpha,5.0,1963,1,12190,similarity
12,1,A150,B850,Alpha,Beta,0.9999999999999998,2161,1,12190,similarity
13,1,A150,C1050,Alpha,Gamma,0.9999999999999998,1434,1,12190,similarity
14,1,A150,C1250,Alpha,Gamma,0.9999999999999998,2971,1,12190,similarity
3,2,A350,B650,Alpha,Beta,4.0,2084,1,12190,similarity
4,2,A350,C1350,Alpha,Gamma,0.9999999999999998,2281,1,12190,similarity
5,2,A350,B950,Alpha, Beta,2.0,4090,1,12190,similarity
6,2,A350,A50,Alpha,Alpha,3.0,4379,1,12190,similarity
7,2,A350,C1150,Alpha,Gamma,2.0,2479,1,12190,similarity
8,2,A350,B750,Alpha,Beta,3.0,4660,1,12190,similarity
9,2,A350,A450,Alpha,Alpha,5.0,1556,1,12190,similarity
10,2,A350,B550,Alpha,Beta,5.0,1075,1,12190,similarity
11,2,A350,A250,Alpha,Alpha,5.0,1123,1,12190,similarity
12,2,A350,B850,Alpha,Beta,3.0,2106,1,12190,similarity
13,2,A350,C1050,Alpha,Gamma,2.0,1467,1,12190,similarity
14,2,A350,C1250,Alpha,Gamma,2.0,1131,1,12190,similarity
4,3,B650,C1350,Beta,Gamma,3.0,3099,1,12190,similarity
5,3,B650,B950,Beta, Beta,4.0,1796,1,12190,similarity
6,3,B650,A50,Beta,Alpha,2.0,3987,1,12190,similarity
7,3,B650,C1150,Beta,Gamma,3.0,3170,1,12190,similarity
8,3,B650,B750,Beta,Beta,5.0,4584,1,12190,similarity
9,3,B650,A450,Beta,Alpha,5.0,1193,1,12190,similarity
10,3,B650,B550,Beta,Beta,5.0,1003,1,12190,similarity
11,3,B650,A250,Beta,Alpha,3.0,3179,1,12190,similarity
12,3,B650,B850,Beta,Beta,4.0,3195,1,12190,similarity
13,3,B650,C1050,Beta,Gamma,4.0,4387,1,12190,similarity
14,3,B650,C1250,Beta,Gamma,3.0,2522,1,12190,similarity
5,4,C1350,B950,Gamma, Beta,4.0,1580,1,12190,similarity
6,4,C1350,A50,Gamma,Alpha,0.0,2210,1,12190,similarity
7,4,C1350,C1150,Gamma,Gamma,5.0,3746,1,12190,similarity
8,4,C1350,B750,Gamma,Beta,4.0,2643,1,12190,similarity
9,4,C1350,A450,Gamma,Alpha,3.0,1411,1,12190,similarity
10,4,C1350,B550,Gamma,Beta,3.0,1970,1,12190,similarity
11,4,C1350,A250,Gamma,Alpha,2.0,2036,1,12190,similarity
12,4,C1350,B850,Gamma,Beta,4.0,2132,1,12190,similarity
13,4,C1350,C1050,Gamma,Gamma,5.0,1649,1,12190,similarity
14,4,C1350,C1250,Gamma,Gamma,6.0,1980,1,12190,similarity
6,5,B950,A50, Beta,Alpha,0.9999999999999998,3594,1,12190,similarity
7,5,B950,C1150, Beta,Gamma,4.0,3403,1,12190,similarity
8,5,B950,B750, Beta,Beta,4.0,2249,1,12190,similarity
9,5,B950,A450, Beta,Alpha,3.0,3379,1,12190,similarity
10,5,B950,B550, Beta,Beta,4.0,5835,1,12190,similarity
11,5,B950,A250, Beta,Alpha,2.0,1910,1,12190,similarity
12,5,B950,B850, Beta,Beta,6.0,1771,1,12190,similarity
13,5,B950,C1050, Beta,Gamma,6.0,980,1,12190,similarity
14,5,B950,C1250, Beta,Gamma,5.0,2162,1,12190,similarity
7,6,A50,C1150,Alpha,Gamma,0.0,3210,1,12190,similarity
8,6,A50,B750,Alpha,Beta,0.9999999999999998,2075,1,12190,similarity
9,6,A50,A450,Alpha,Alpha,2.0,1508,1,12190,similarity
10,6,A50,B550,Alpha,Beta,2.0,1194,1,12190,similarity
11,6,A50,A250,Alpha,Alpha,4.0,2129,1,12190,similarity
12,6,A50,B850,Alpha,Beta,0.9999999999999998,2443,1,12190,similarity
13,6,A50,C1050,Alpha,Gamma,0.0,2588,1,12190,similarity
14,6,A50,C1250,Alpha,Gamma,0.0,1110,1,12190,similarity
8,7,C1150,B750,Gamma,Beta,4.0,2665,1,12190,similarity
9,7,C1150,A450,Gamma,Alpha,2.0,2516,1,12190,similarity
10,7,C1150,B550,Gamma,Beta,3.0,1188,1,12190,similarity
11,7,C1150,A250,Gamma,Alpha,0.9999999999999998,1786,1,12190,similarity
12,7,C1150,B850,Gamma,Beta,4.0,2411,1,12190,similarity
13,7,C1150,C1050,Gamma,Gamma,6.0,1660,1,12190,similarity
14,7,C1150,C1250,Gamma,Gamma,6.0,1274,1,12190,similarity
9,8,B750,A450,Beta,Alpha,4.0,3394,1,12190,similarity
10,8,B750,B550,Beta,Beta,5.0,2281,1,12190,similarity
11,8,B750,A250,Beta,Alpha,2.0,3531,1,12190,similarity
12,8,B750,B850,Beta,Beta,6.0,2451,1,12190,similarity
13,8,B750,C1050,Beta,Gamma,5.0,2089,1,12190,similarity
14,8,B750,C1250,Beta,Gamma,4.0,1971,1,12190,similarity
10,9,A450,B550,Alpha,Beta,6.0,2790,1,12190,similarity
11,9,A450,A250,Alpha,Alpha,4.0,2651,1,12190,similarity
12,9,A450,B850,Alpha,Beta,4.0,2783,1,12190,similarity
13,9,A450,C1050,Alpha,Gamma,3.0,1754,1,12190,similarity
14,9,A450,C1250,Alpha,Gamma,2.0,1658,1,12190,similarity
11,10,B550,A250,Beta,Alpha,4.0,2195,1,12190,similarity
12,10,B550,B850,Beta,Beta,4.0,3002,1,12190,similarity
13,10,B550,C1050,Beta,Gamma,4.0,1882,1,12190,similarity
14,10,B550,C1250,Beta,Gamma,3.0,1402,1,12190,similarity
12,11,A250,B850,Alpha,Beta,3.0,909,1,12190,similarity
13,11,A250,C1050,Alpha,Gamma,2.0,1946,1,12190,similarity
14,11,A250,C1250,Alpha,Gamma,2.0,947,1,12190,similarity
13,12,B850,C1050,Beta,Gamma,5.0,1979,1,12190,similarity
14,12,B850,C1250,Beta,Gamma,4.0,2683,1,12190,similarity
14,13,C1050,C1250,Gamma,Gamma,5.0,1680,1,12190,similarity
1,0,B550,C1350,Gamma,Gamma,0.9999999999999998,11135,1,12193,similarity
2,0,B550,A150,Beta,Alpha,0.9999999999999998,3664,1,12193,similarity
3,0,B550,B850,Beta,Beta,4.0,5830,1,12193,similarity
4,0,B550,A250,Beta,Alpha,0.9999999999999998,4385,1,12193,similarity
5,0,B550,A50,Beta,Alpha,0.0,6540,1,12193,similarity
6,0,B550,B950,Beta, Beta,0.9999999999999998,6732,1,12193,similarity
7,0,B550,A350,Beta,Alpha,2.0,5235,1,12193,similarity
8,0,B550,C1250,Beta,Gamma,0.9999999999999998,3891,1,12193,similarity
9,0,B550,B750,Beta,Beta,5.0,3507,1,12193,similarity
10,0,B550,B650,Beta,Beta,5.0,2131,1,12193,similarity
11,0,B550,C1150,Beta,Gamma,0.9999999999999998,4754,1,12193,similarity
12,0,B550,A450,Beta,Alpha,5.0,8051,1,12193,similarity
13,0,B550,C1050,Beta,Gamma,0.9999999999999998,4138,1,12193,similarity
14,0,B550,C1450,Beta,Gamma,0.9999999999999998,4515,1,12193,similarity
2,1,C1350,A150,Gamma,Alpha,0.0,2207,1,12193,similarity
3,1,C1350,B850,Gamma,Beta,5.0,3046,1,12193,similarity
4,1,C1350,A250,Gamma,Alpha,0.0,3355,1,12193,similarity
5,1,C1350,A50,Gamma,Alpha,0.0,1332,1,12193,similarity
6,1,C1350,B950,Gamma, Beta,5.0,3190,1,12193,similarity
7,1,C1350,A350,Gamma,Alpha,0.0,8038,1,12193,similarity
8,1,C1350,C1250,Gamma,Gamma,6.0,2059,1,12193,similarity
9,1,C1350,B750,Gamma,Beta,3.0,7211,1,12193,similarity
10,1,C1350,B650,Gamma,Beta,3.0,4747,1,12193,similarity
11,1,C1350,C1150,Gamma,Gamma,6.0,1955,1,12193,similarity
12,1,C1350,A450,Gamma,Alpha,0.9999999999999998,5584,1,12193,similarity
13,1,C1350,C1050,Gamma,Gamma,6.0,2403,1,12193,similarity
14,1,C1350,C1450,Gamma,Gamma,6.0,1227,1,12193,similarity
3,2,A150,B850,Alpha,Beta,0.0,4906,1,12193,similarity
4,2,A150,A250,Alpha,Alpha,6.0,2434,1,12193,similarity
5,2,A150,A50,Alpha,Alpha,6.0,1765,1,12193,similarity
6,2,A150,B950,Alpha, Beta,0.9999999999999998,7338,1,12193,similarity
7,2,A150,A350,Alpha,Alpha,5.0,4444,1,12193,similarity
8,2,A150,C1250,Alpha,Gamma,0.9999999999999998,2665,1,12193,similarity
9,2,A150,B750,Alpha,Beta,0.9999999999999998,6789,1,12193,similarity
10,2,A150,B650,Alpha,Beta,0.9999999999999998,1838,1,12193,similarity
11,2,A150,C1150,Alpha,Gamma,0.0,2395,1,12193,similarity
12,2,A150,A450,Alpha,Alpha,2.0,3691,1,12193,similarity
13,2,A150,C1050,Alpha,Gamma,0.0,3964,1,12193,similarity
14,2,A150,C1450,Alpha,Gamma,0.0,1403,1,12193,similarity
4,3,B850,A250,Beta,Alpha,2.0,7970,1,12193,similarity
5,3,B850,A50,Beta,Alpha,0.0,2914,1,12193,similarity
6,3,B850,B950,Beta, Beta,6.0,1947,1,12193,similarity
7,3,B850,A350,Beta,Alpha,0.9999999999999998,3650,1,12193,similarity
8,3,B850,C1250,Beta,Gamma,6.0,2676,1,12193,similarity
9,3,B850,B750,Beta,Beta,6.0,845,1,12193,similarity
10,3,B850,B650,Beta,Beta,3.0,4123,1,12193,similarity
11,3,B850,C1150,Beta,Gamma,6.0,1468,1,12193,similarity
12,3,B850,A450,Beta,Alpha,3.0,7042,1,12193,similarity
13,3,B850,C1050,Beta,Gamma,6.0,1644,1,12193,similarity
14,3,B850,C1450,Beta,Gamma,6.0,1170,1,12193,similarity
5,4,A250,A50,Alpha,Alpha,6.0,4477,1,12193,similarity
6,4,A250,B950,Alpha, Beta,0.9999999999999998,3467,1,12193,similarity
7,4,A250,A350,Alpha,Alpha,3.0,2713,1,12193,similarity
8,4,A250,C1250,Alpha,Gamma,0.9999999999999998,5762,1,12193,similarity
9,4,A250,B750,Alpha,Beta,2.0,5578,1,12193,similarity
10,4,A250,B650,Alpha,Beta,2.0,2010,1,12193,similarity
11,4,A250,C1150,Alpha,Gamma,0.0,4695,1,12193,similarity
12,4,A250,A450,Alpha,Alpha,4.0,3681,1,12193,similarity
13,4,A250,C1050,Alpha,Gamma,0.9999999999999998,3684,1,12193,similarity
14,4,A250,C1450,Alpha,Gamma,0.0,2001,1,12193,similarity
6,5,A50,B950,Alpha, Beta,0.0,1332,1,12193,similarity
7,5,A50,A350,Alpha,Alpha,4.0,6907,1,12193,similarity
8,5,A50,C1250,Alpha,Gamma,0.0,5318,1,12193,similarity
9,5,A50,B750,Alpha,Beta,0.0,2651,1,12193,similarity
10,5,A50,B650,Alpha,Beta,0.0,1003,1,12193,similarity
11,5,A50,C1150,Alpha,Gamma,0.0,727,1,12193,similarity
12,5,A50,A450,Alpha,Alpha,3.0,3505,1,12193,similarity
13,5,A50,C1050,Alpha,Gamma,0.0,1709,1,12193,similarity
14,5,A50,C1450,Alpha,Gamma,0.0,759,1,12193,similarity
7,6,B950,A350, Beta,Alpha,2.0,6511,1,12193,similarity
8,6,B950,C1250, Beta,Gamma,6.0,1856,1,12193,similarity
9,6,B950,B750, Beta,Beta,6.0,1131,1,12193,similarity
10,6,B950,B650, Beta,Beta,6.0,1194,1,12193,similarity
11,6,B950,C1150, Beta,Gamma,6.0,9636,1,12193,similarity
12,6,B950,A450, Beta,Alpha,2.0,3578,1,12193,similarity
13,6,B950,C1050, Beta,Gamma,6.0,2796,1,12193,similarity
14,6,B950,C1450, Beta,Gamma,6.0,809,1,12193,similarity
8,7,A350,C1250,Alpha,Gamma,0.9999999999999998,2783,1,12193,similarity
9,7,A350,B750,Alpha,Beta,3.0,5261,1,12193,similarity
10,7,A350,B650,Alpha,Beta,5.0,3474,1,12193,similarity
11,7,A350,C1150,Alpha,Gamma,0.9999999999999998,5472,1,12193,similarity
12,7,A350,A450,Alpha,Alpha,6.0,2434,1,12193,similarity
13,7,A350,C1050,Alpha,Gamma,0.9999999999999998,2218,1,12193,similarity
14,7,A350,C1450,Alpha,Gamma,0.9999999999999998,2339,1,12193,similarity
9,8,C1250,B750,Gamma,Beta,5.0,2254,1,12193,similarity
10,8,C1250,B650,Gamma,Beta,4.0,6582,1,12193,similarity
11,8,C1250,C1150,Gamma,Gamma,6.0,1699,1,12193,similarity
12,8,C1250,A450,Gamma,Alpha,2.0,5374,1,12193,similarity
13,8,C1250,C1050,Gamma,Gamma,6.0,1731,1,12193,similarity
14,8,C1250,C1450,Gamma,Gamma,6.0,733,1,12193,similarity
10,9,B750,B650,Beta,Beta,5.0,4460,1,12193,similarity
11,9,B750,C1150,Beta,Gamma,3.0,4145,1,12193,similarity
12,9,B750,A450,Beta,Alpha,5.0,3707,1,12193,similarity
13,9,B750,C1050,Beta,Gamma,6.0,1915,1,12193,similarity
14,9,B750,C1450,Beta,Gamma,4.0,3723,1,12193,similarity
11,10,B650,C1150,Beta,Gamma,4.0,3184,1,12193,similarity
12,10,B650,A450,Beta,Alpha,4.0,8916,1,12193,similarity
13,10,B650,C1050,Beta,Gamma,3.0,5437,1,12193,similarity
14,10,B650,C1450,Beta,Gamma,2.0,4514,1,12193,similarity
12,11,C1150,A450,Gamma,Alpha,2.0,1331,1,12193,similarity
13,11,C1150,C1050,Gamma,Gamma,6.0,2154,1,12193,similarity
14,11,C1150,C1450,Gamma,Gamma,6.0,1068,1,12193,similarity
13,12,A450,C1050,Alpha,Gamma,2.0,3299,1,12193,similarity
14,12,A450,C1450,Alpha,Gamma,0.9999999999999998,3626,1,12193,similarity
14,13,C1050,C1450,Gamma,Gamma,6.0,3235,1,12193,similarity
1,0,B750,A250,Alpha,Alpha,0.0,7311,1,12196,similarity
2,0,B750,A450,Beta,Alpha,0.9999999999999998,3754,1,12196,similarity
3,0,B750,B950,Beta, Beta,0.9999999999999998,3056,1,12196,similarity
4,0,B750,A350,Beta,Alpha,0.9999999999999998,2844,1,12196,similarity
5,0,B750,A50,Beta,Alpha,0.0,2410,1,12196,similarity
6,0,B750,B850,Beta,Beta,4.0,3803,1,12196,similarity
7,0,B750,C1250,Beta,Gamma,3.0,5401,1,12196,similarity
8,0,B750,B550,Beta,Beta,5.0,2555,1,12196,similarity
9,0,B750,A150,Beta,Alpha,3.0,2111,1,12196,similarity
10,0,B750,C1150,Beta,Gamma,4.0,2065,1,12196,similarity
11,0,B750,C1350,Beta,Gamma,2.0,2651,1,12196,similarity
12,0,B750,B650,Beta,Beta,6.0,2937,1,12196,similarity
13,0,B750,C1450,Beta,Gamma,4.0,2401,1,12196,similarity
14,0,B750,C1050,Beta,Gamma,5.0,3841,1,12196,similarity
2,1,A250,A450,Alpha,Alpha,5.0,2144,1,12196,similarity
3,1,A250,B950,Alpha, Beta,0.0,2520,1,12196,similarity
4,1,A250,A350,Alpha,Alpha,5.0,2495,1,12196,similarity
5,1,A250,A50,Alpha,Alpha,2.0,5955,1,12196,similarity
6,1,A250,B850,Alpha,Beta,2.0,1755,1,12196,similarity
7,1,A250,C1250,Alpha,Gamma,0.9999999999999998,3002,1,12196,similarity
8,1,A250,B550,Alpha,Beta,3.0,2459,1,12196,similarity
9,1,A250,A150,Alpha,Alpha,6.0,2675,1,12196,similarity
10,1,A250,C1150,Alpha,Gamma,0.0,1715,1,12196,similarity
11,1,A250,C1350,Alpha,Gamma,0.0,627,1,12196,similarity
12,1,A250,B650,Alpha,Beta,2.0,2676,1,12196,similarity
13,1,A250,C1450,Alpha,Gamma,0.0,1850,1,12196,similarity
14,1,A250,C1050,Alpha,Gamma,0.0,938,1,12196,similarity
3,2,A450,B950,Alpha, Beta,4.0,2000,1,12196,similarity
4,2,A450,A350,Alpha,Alpha,6.0,2065,1,12196,similarity
5,2,A450,A50,Alpha,Alpha,2.0,3010,1,12196,similarity
6,2,A450,B850,Alpha,Beta,4.0,2030,1,12196,similarity
7,2,A450,C1250,Alpha,Gamma,2.0,2404,1,12196,similarity
8,2,A450,B550,Alpha,Beta,6.0,2508,1,12196,similarity
9,2,A450,A150,Alpha,Alpha,6.0,1491,1,12196,similarity
10,2,A450,C1150,Alpha,Gamma,3.0,2395,1,12196,similarity
11,2,A450,C1350,Alpha,Gamma,2.0,1760,1,12196,similarity
12,2,A450,B650,Alpha,Beta,5.0,2125,1,12196,similarity
13,2,A450,C1450,Alpha,Gamma,0.0,1914,1,12196,similarity
14,2,A450,C1050,Alpha,Gamma,0.0,760,1,12196,similarity
4,3,B950,A350, Beta,Alpha,2.0,2614,1,12196,similarity
5,3,B950,A50, Beta,Alpha,0.0,1963,1,12196,similarity
6,3,B950,B850, Beta,Beta,5.0,2267,1,12196,similarity
7,3,B950,C1250, Beta,Gamma,3.0,6570,1,12196,similarity
8,3,B950,B550, Beta,Beta,2.0,2211,1,12196,similarity
9,3,B950,A150, Beta,Alpha,2.0,646,1,12196,similarity
10,3,B950,C1150, Beta,Gamma,6.0,1971,1,12196,similarity
11,3,B950,C1350, Beta,Gamma,6.0,892,1,12196,similarity
12,3,B950,B650, Beta,Beta,4.0,4022,1,12196,similarity
13,3,B950,C1450, Beta,Gamma,2.0,1940,1,12196,similarity
14,3,B950,C1050, Beta,Gamma,6.0,3509,1,12196,similarity
5,4,A350,A50,Alpha,Alpha,0.0,2623,1,12196,similarity
6,4,A350,B850,Alpha,Beta,2.0,5652,1,12196,similarity
7,4,A350,C1250,Alpha,Gamma,2.0,712,1,12196,similarity
8,4,A350,B550,Alpha,Beta,2.0,916,1,12196,similarity
9,4,A350,A150,Alpha,Alpha,2.0,659,1,12196,similarity
10,4,A350,C1150,Alpha,Gamma,2.0,1171,1,12196,similarity
11,4,A350,C1350,Alpha,Gamma,0.9999999999999998,1981,1,12196,similarity
12,4,A350,B650,Alpha,Beta,4.0,1723,1,12196,similarity
13,4,A350,C1450,Alpha,Gamma,2.0,2149,1,12196,similarity
14,4,A350,C1050,Alpha,Gamma,0.9999999999999998,1847,1,12196,similarity
6,5,A50,B850,Alpha,Beta,0.0,2564,1,12196,similarity
7,5,A50,C1250,Alpha,Gamma,0.0,570,1,12196,similarity
8,5,A50,B550,Alpha,Beta,0.0,675,1,12196,similarity
9,5,A50,A150,Alpha,Alpha,0.0,2627,1,12196,similarity
10,5,A50,C1150,Alpha,Gamma,0.0,627,1,12196,similarity
11,5,A50,C1350,Alpha,Gamma,0.0,619,1,12196,similarity
12,5,A50,B650,Alpha,Beta,0.0,779,1,12196,similarity
13,5,A50,C1450,Alpha,Gamma,0.0,579,1,12196,similarity
14,5,A50,C1050,Alpha,Gamma,0.0,547,1,12196,similarity
7,6,B850,C1250,Beta,Gamma,5.0,3108,1,12196,similarity
8,6,B850,B550,Beta,Beta,5.0,1033,1,12196,similarity
9,6,B850,A150,Beta,Alpha,4.0,2538,1,12196,similarity
10,6,B850,C1150,Beta,Gamma,6.0,2187,1,12196,similarity
11,6,B850,C1350,Beta,Gamma,6.0,538,1,12196,similarity
12,6,B850,B650,Beta,Beta,6.0,743,1,12196,similarity
13,6,B850,C1450,Beta,Gamma,6.0,569,1,12196,similarity
14,6,B850,C1050,Beta,Gamma,6.0,641,1,12196,similarity
8,7,C1250,B550,Gamma,Beta,6.0,479,1,12196,similarity
9,7,C1250,A150,Gamma,Alpha,6.0,444,1,12196,similarity
10,7,C1250,C1150,Gamma,Gamma,6.0,1573,1,12196,similarity
11,7,C1250,C1350,Gamma,Gamma,6.0,506,1,12196,similarity
12,7,C1250,B650,Gamma,Beta,5.0,2027,1,12196,similarity
13,7,C1250,C1450,Gamma,Gamma,6.0,1739,1,12196,similarity
14,7,C1250,C1050,Gamma,Gamma,6.0,882,1,12196,similarity
9,8,B550,A150,Beta,Alpha,3.0,3097,1,12196,similarity
10,8,B550,C1150,Beta,Gamma,3.0,754,1,12196,similarity
11,8,B550,C1350,Beta,Gamma,3.0,2844,1,12196,similarity
12,8,B550,B650,Beta,Beta,3.0,1347,1,12196,similarity
13,8,B550,C1450,Beta,Gamma,3.0,3634,1,12196,similarity
14,8,B550,C1050,Beta,Gamma,3.0,1064,1,12196,similarity
10,9,A150,C1150,Alpha,Gamma,2.0,2355,1,12196,similarity
11,9,A150,C1350,Alpha,Gamma,0.9999999999999998,2766,1,12196,similarity
12,9,A150,B650,Alpha,Beta,0.9999999999999998,910,1,12196,similarity
13,9,A150,C1450,Alpha,Gamma,0.9999999999999998,630,1,12196,similarity
14,9,A150,C1050,Alpha,Gamma,0.9999999999999998,485,1,12196,similarity
11,10,C1150,C1350,Gamma,Gamma,5.0,3137,1,12196,similarity
12,10,C1150,B650,Gamma,Beta,5.0,2043,1,12196,similarity
13,10,C1150,C1450,Gamma,Gamma,5.0,719,1,12196,similarity
14,10,C1150,C1050,Gamma,Gamma,5.0,571,1,12196,similarity
12,11,C1350,B650,Gamma,Beta,3.0,2465,1,12196,similarity
13,11,C1350,C1450,Gamma,Gamma,6.0,1999,1,12196,similarity
14,11,C1350,C1050,Gamma,Gamma,6.0,954,1,12196,similarity
13,12,B650,C1450,Beta,Gamma,3.0,2285,1,12196,similarity
14,12,B650,C1050,Beta,Gamma,3.0,1026,1,12196,similarity
14,13,C1450,C1050,Gamma,Gamma,4.0,3962,1,12196,similarity
1,0,A150,C1250,Gamma,Gamma,0.0,7020,1,12199,similarity
2,0,A150,B850,Alpha,Beta,0.0,3186,1,12199,similarity
3,0,A150,A450,Alpha,Alpha,3.0,3698,1,12199,similarity
4,0,A150,A50,Alpha,Alpha,4.0,4643,1,12199,similarity
5,0,A150,B750,Alpha,Beta,0.9999999999999998,3335,1,12199,similarity
6,0,A150,B550,Alpha,Beta,4.0,3778,1,12199,similarity
7,0,A150,C1450,Alpha,Gamma,0.0,2018,1,12199,similarity
8,0,A150,C1050,Alpha,Gamma,0.9999999999999998,2338,1,12199,similarity
9,0,A150,A250,Alpha,Alpha,5.0,7051,1,12199,similarity
10,0,A150,C1350,Alpha,Gamma,0.0,2586,1,12199,similarity
11,0,A150,B650,Alpha,Beta,3.0,3179,1,12199,similarity
12,0,A150,B950,Alpha, Beta,2.0,1575,1,12199,similarity
13,0,A150,C1150,Alpha,Gamma,0.9999999999999998,2932,1,12199,similarity
14,0,A150,A350,Alpha,Alpha,5.0,2464,1,12199,similarity
2,1,C1250,B850,Gamma,Beta,5.0,3226,1,12199,similarity
3,1,C1250,A450,Gamma,Alpha,2.0,3049,1,12199,similarity
4,1,C1250,A50,Gamma,Alpha,0.0,2466,1,12199,similarity
5,1,C1250,B750,Gamma,Beta,4.0,3612,1,12199,similarity
6,1,C1250,B550,Gamma,Beta,3.0,1594,1,12199,similarity
7,1,C1250,C1450,Gamma,Gamma,5.0,6019,1,12199,similarity
8,1,C1250,C1050,Gamma,Gamma,5.0,3608,1,12199,similarity
9,1,C1250,A250,Gamma,Alpha,2.0,2089,1,12199,similarity
10,1,C1250,C1350,Gamma,Gamma,6.0,3306,1,12199,similarity
11,1,C1250,B650,Gamma,Beta,4.0,2147,1,12199,similarity
12,1,C1250,B950,Gamma, Beta,5.0,1851,1,12199,similarity
13,1,C1250,C1150,Gamma,Gamma,6.0,2162,1,12199,similarity
14,1,C1250,A350,Gamma,Alpha,3.0,3603,1,12199,similarity
3,2,B850,A450,Beta,Alpha,3.0,1018,1,12199,similarity
4,2,B850,A50,Beta,Alpha,0.0,2175,1,12199,similarity
5,2,B850,B750,Beta,Beta,6.0,3068,1,12199,similarity
6,2,B850,B550,Beta,Beta,5.0,1826,1,12199,similarity
7,2,B850,C1450,Beta,Gamma,5.0,1771,1,12199,similarity
8,2,B850,C1050,Beta,Gamma,6.0,2027,1,12199,similarity
9,2,B850,A250,Beta,Alpha,4.0,1779,1,12199,similarity
10,2,B850,C1350,Beta,Gamma,6.0,3195,1,12199,similarity
11,2,B850,B650,Beta,Beta,6.0,1013,1,12199,similarity
12,2,B850,B950,Beta, Beta,6.0,618,1,12199,similarity
13,2,B850,C1150,Beta,Gamma,5.0,2316,1,12199,similarity
14,2,B850,A350,Beta,Alpha,2.0,3842,1,12199,similarity
4,3,A450,A50,Alpha,Alpha,0.0,1898,1,12199,similarity
5,3,A450,B750,Alpha,Beta,5.0,2774,1,12199,similarity
6,3,A450,B550,Alpha,Beta,6.0,1882,1,12199,similarity
7,3,A450,C1450,Alpha,Gamma,2.0,2835,1,12199,similarity
8,3,A450,C1050,Alpha,Gamma,2.0,1259,1,12199,similarity
9,3,A450,A250,Alpha,Alpha,6.0,2092,1,12199,similarity
10,3,A450,C1350,Alpha,Gamma,0.0,2353,1,12199,similarity
11,3,A450,B650,Alpha,Beta,6.0,3926,1,12199,similarity
12,3,A450,B950,Alpha, Beta,3.0,3851,1,12199,similarity
13,3,A450,C1150,Alpha,Gamma,3.0,1699,1,12199,similarity
14,3,A450,A350,Alpha,Alpha,6.0,2130,1,12199,similarity
5,4,A50,B750,Alpha,Beta,0.0,1947,1,12199,similarity
6,4,A50,B550,Alpha,Beta,0.9999999999999998,2488,1,12199,similarity
7,4,A50,C1450,Alpha,Gamma,0.0,2274,1,12199,similarity
8,4,A50,C1050,Alpha,Gamma,0.9999999999999998,2338,1,12199,similarity
9,4,A50,A250,Alpha,Alpha,4.0,3067,1,12199,similarity
10,4,A50,C1350,Alpha,Gamma,0.0,3514,1,12199,similarity
11,4,A50,B650,Alpha,Beta,0.0,920,1,12199,similarity
12,4,A50,B950,Alpha, Beta,0.0,722,1,12199,similarity
13,4,A50,C1150,Alpha,Gamma,0.0,530,1,12199,similarity
14,4,A50,A350,Alpha,Alpha,5.0,2761,1,12199,similarity
6,5,B750,B550,Beta,Beta,6.0,2995,1,12199,similarity
7,5,B750,C1450,Beta,Gamma,4.0,2007,1,12199,similarity
8,5,B750,C1050,Beta,Gamma,5.0,2115,1,12199,similarity
9,5,B750,A250,Beta,Alpha,3.0,3024,1,12199,similarity
10,5,B750,C1350,Beta,Gamma,6.0,2037,1,12199,similarity
11,5,B750,B650,Beta,Beta,6.0,1490,1,12199,similarity
12,5,B750,B950,Beta, Beta,6.0,579,1,12199,similarity
13,5,B750,C1150,Beta,Gamma,6.0,1168,1,12199,similarity
14,5,B750,A350,Beta,Alpha,4.0,3152,1,12199,similarity
7,6,B550,C1450,Beta,Gamma,3.0,3754,1,12199,similarity
8,6,B550,C1050,Beta,Gamma,5.0,2149,1,12199,similarity
9,6,B550,A250,Beta,Alpha,5.0,1002,1,12199,similarity
10,6,B550,C1350,Beta,Gamma,3.0,2277,1,12199,similarity
11,6,B550,B650,Beta,Beta,6.0,2325,1,12199,similarity
12,6,B550,B950,Beta, Beta,5.0,2366,1,12199,similarity
13,6,B550,C1150,Beta,Gamma,5.0,1195,1,12199,similarity
14,6,B550,A350,Beta,Alpha,5.0,593,1,12199,similarity
8,7,C1450,C1050,Gamma,Gamma,5.0,901,1,12199,similarity
9,7,C1450,A250,Gamma,Alpha,2.0,2337,1,12199,similarity
10,7,C1450,C1350,Gamma,Gamma,6.0,3667,1,12199,similarity
11,7,C1450,B650,Gamma,Beta,2.0,2563,1,12199,similarity
12,7,C1450,B950,Gamma, Beta,2.0,709,1,12199,similarity
13,7,C1450,C1150,Gamma,Gamma,6.0,3047,1,12199,similarity
14,7,C1450,A350,Gamma,Alpha,0.9999999999999998,2638,1,12199,similarity
9,8,C1050,A250,Gamma,Alpha,0.9999999999999998,764,1,12199,similarity
10,8,C1050,C1350,Gamma,Gamma,6.0,2340,1,12199,similarity
11,8,C1050,B650,Gamma,Beta,5.0,3098,1,12199,similarity
12,8,C1050,B950,Gamma, Beta,6.0,2691,1,12199,similarity
13,8,C1050,C1150,Gamma,Gamma,6.0,721,1,12199,similarity
14,8,C1050,A350,Gamma,Alpha,2.0,3468,1,12199,similarity
10,9,A250,C1350,Alpha,Gamma,0.0,2778,1,12199,similarity
11,9,A250,B650,Alpha,Beta,0.0,728,1,12199,similarity
12,9,A250,B950,Alpha, Beta,0.0,633,1,12199,similarity
13,9,A250,C1150,Alpha,Gamma,0.0,489,1,12199,similarity
14,9,A250,A350,Alpha,Alpha,6.0,3060,1,12199,similarity
11,10,C1350,B650,Gamma,Beta,4.0,2888,1,12199,similarity
12,10,C1350,B950,Gamma, Beta,6.0,3565,1,12199,similarity
13,10,C1350,C1150,Gamma,Gamma,6.0,454,1,12199,similarity
14,10,C1350,A350,Gamma,Alpha,2.0,2568,1,12199,similarity
12,11,B650,B950,Beta, Beta,6.0,1868,1,12199,similarity
13,11,B650,C1150,Beta,Gamma,5.0,3378,1,12199,similarity
14,11,B650,A350,Beta,Alpha,4.0,3875,1,12199,similarity
13,12,B950,C1150, Beta,Gamma,6.0,2725,1,12199,similarity
14,12,B950,A350, Beta,Alpha,3.0,2085,1,12199,similarity
14,13,C1150,A350,Gamma,Alpha,3.0,642,1,12199,similarity
1,0,B850,A50,Alpha,Alpha,0.0,7653,1,11296,similarity
2,0,B850,C1150,Beta,Gamma,4.0,2956,1,11296,similarity
3,0,B850,A250,Beta,Alpha,0.0,4793,1,11296,similarity
4,0,B850,C1450,Beta,Gamma,6.0,2201,1,11296,similarity
5,0,B850,B950,Beta, Beta,6.0,1505,1,11296,similarity
6,0,B850,A150,Beta,Alpha,0.0,1914,1,11296,similarity
7,0,B850,B750,Beta,Beta,5.0,3572,1,11296,similarity
8,0,B850,B650,Beta,Beta,5.0,1387,1,11296,similarity
9,0,B850,A450,Beta,Alpha,5.0,754,1,11296,similarity
10,0,B850,C1250,Beta,Gamma,6.0,3818,1,11296,similarity
11,0,B850,C1050,Beta,Gamma,6.0,1442,1,11296,similarity
12,0,B850,A350,Beta,Alpha,0.9999999999999998,2739,1,11296,similarity
13,0,B850,B550,Beta,Beta,0.9999999999999998,819,1,11296,similarity
14,0,B850,C1350,Beta,Gamma,6.0,2539,1,11296,similarity
2,1,A50,C1150,Alpha,Gamma,0.0,2155,1,11296,similarity
3,1,A50,A250,Alpha,Alpha,6.0,4227,1,11296,similarity
4,1,A50,C1450,Alpha,Gamma,0.0,2047,1,11296,similarity
5,1,A50,B950,Alpha, Beta,0.0,2930,1,11296,similarity
6,1,A50,A150,Alpha,Alpha,6.0,2369,1,11296,similarity
7,1,A50,B750,Alpha,Beta,0.0,3291,1,11296,similarity
8,1,A50,B650,Alpha,Beta,0.0,763,1,11296,similarity
9,1,A50,A450,Alpha,Alpha,0.0,1282,1,11296,similarity
10,1,A50,C1250,Alpha,Gamma,0.0,1917,1,11296,similarity
11,1,A50,C1050,Alpha,Gamma,0.0,531,1,11296,similarity
12,1,A50,A350,Alpha,Alpha,6.0,3436,1,11296,similarity
13,1,A50,B550,Alpha,Beta,4.0,2707,1,11296,similarity
14,1,A50,C1350,Alpha,Gamma,0.0,2065,1,11296,similarity
3,2,C1150,A250,Gamma,Alpha,0.0,4368,1,11296,similarity
4,2,C1150,C1450,Gamma,Gamma,6.0,2319,1,11296,similarity
5,2,C1150,B950,Gamma, Beta,6.0,788,1,11296,similarity
6,2,C1150,A150,Gamma,Alpha,0.0,2267,1,11296,similarity
7,2,C1150,B750,Gamma,Beta,6.0,1914,1,11296,similarity
8,2,C1150,B650,Gamma,Beta,6.0,867,1,11296,similarity
9,2,C1150,A450,Gamma,Alpha,0.0,2723,1,11296,similarity
10,2,C1150,C1250,Gamma,Gamma,6.0,3258,1,11296,similarity
11,2,C1150,C1050,Gamma,Gamma,6.0,878,1,11296,similarity
12,2,C1150,A350,Gamma,Alpha,2.0,2214,1,11296,similarity
13,2,C1150,B550,Gamma,Beta,3.0,1571,1,11296,similarity
14,2,C1150,C1350,Gamma,Gamma,6.0,2131,1,11296,similarity
4,3,A250,C1450,Alpha,Gamma,0.0,2111,1,11296,similarity
5,3,A250,B950,Alpha, Beta,0.0,915,1,11296,similarity
6,3,A250,A150,Alpha,Alpha,6.0,2898,1,11296,similarity
7,3,A250,B750,Alpha,Beta,3.0,1947,1,11296,similarity
8,3,A250,B650,Alpha,Beta,4.0,2914,1,11296,similarity
9,3,A250,A450,Alpha,Alpha,6.0,1979,1,11296,similarity
10,3,A250,C1250,Alpha,Gamma,0.0,2034,1,11296,similarity
11,3,A250,C1050,Alpha,Gamma,0.0,970,1,11296,similarity
12,3,A250,A350,Alpha,Alpha,6.0,3217,1,11296,similarity
13,3,A250,B550,Alpha,Beta,4.0,1601,1,11296,similarity
14,3,A250,C1350,Alpha,Gamma,0.0,1827,1,11296,similarity
5,4,C1450,B950,Gamma, Beta,6.0,2194,1,11296,similarity
6,4,C1450,A150,Gamma,Alpha,0.0,1923,1,11296,similarity
7,4,C1450,B750,Gamma,Beta,6.0,1706,1,11296,similarity
8,4,C1450,B650,Gamma,Beta,3.0,1934,1,11296,similarity
9,4,C1450,A450,Gamma,Alpha,3.0,804,1,11296,similarity
10,4,C1450,C1250,Gamma,Gamma,3.0,474,1,11296,similarity
11,4,C1450,C1050,Gamma,Gamma,6.0,1708,1,11296,similarity
12,4,C1450,A350,Gamma,Alpha,3.0,2114,1,11296,similarity
13,4,C1450,B550,Gamma,Beta,3.0,809,1,11296,similarity
14,4,C1450,C1350,Gamma,Gamma,6.0,1900,1,11296,similarity
6,5,B950,A150, Beta,Alpha,0.0,3826,1,11296,similarity
7,5,B950,B750, Beta,Beta,3.0,5765,1,11296,similarity
8,5,B950,B650, Beta,Beta,3.0,945,1,11296,similarity
9,5,B950,A450, Beta,Alpha,3.0,553,1,11296,similarity
10,5,B950,C1250, Beta,Gamma,6.0,1954,1,11296,similarity
11,5,B950,C1050, Beta,Gamma,6.0,1114,1,11296,similarity
12,5,B950,A350, Beta,Alpha,0.0,2970,1,11296,similarity
13,5,B950,B550, Beta,Beta,3.0,5259,1,11296,similarity
14,5,B950,C1350, Beta,Gamma,6.0,1675,1,11296,similarity
7,6,A150,B750,Alpha,Beta,2.0,1796,1,11296,similarity
8,6,A150,B650,Alpha,Beta,0.0,1322,1,11296,similarity
9,6,A150,A450,Alpha,Alpha,0.0,763,1,11296,similarity
10,6,A150,C1250,Alpha,Gamma,0.0,1267,1,11296,similarity
11,6,A150,C1050,Alpha,Gamma,0.0,698,1,11296,similarity
12,6,A150,A350,Alpha,Alpha,6.0,2595,1,11296,similarity
13,6,A150,B550,Alpha,Beta,6.0,642,1,11296,similarity
14,6,A150,C1350,Alpha,Gamma,0.0,1779,1,11296,similarity
8,7,B750,B650,Beta,Beta,6.0,2106,1,11296,similarity
9,7,B750,A450,Beta,Alpha,6.0,1097,1,11296,similarity
10,7,B750,C1250,Beta,Gamma,2.0,3034,1,11296,similarity
11,7,B750,C1050,Beta,Gamma,2.0,754,1,11296,similarity
12,7,B750,A350,Beta,Alpha,3.0,1843,1,11296,similarity
13,7,B750,B550,Beta,Beta,4.0,1605,1,11296,similarity
14,7,B750,C1350,Beta,Gamma,0.9999999999999998,3091,1,11296,similarity
9,8,B650,A450,Beta,Alpha,0.9999999999999998,1267,1,11296,similarity
10,8,B650,C1250,Beta,Gamma,4.0,2235,1,11296,similarity
11,8,B650,C1050,Beta,Gamma,4.0,941,1,11296,similarity
12,8,B650,A350,Beta,Alpha,3.0,2420,1,11296,similarity
13,8,B650,B550,Beta,Beta,6.0,2166,1,11296,similarity
14,8,B650,C1350,Beta,Gamma,4.0,3207,1,11296,similarity
10,9,A450,C1250,Alpha,Gamma,3.0,1458,1,11296,similarity
11,9,A450,C1050,Alpha,Gamma,3.0,770,1,11296,similarity
12,9,A450,A350,Alpha,Alpha,4.0,2028,1,11296,similarity
13,9,A450,B550,Alpha,Beta,5.0,1875,1,11296,similarity
14,9,A450,C1350,Alpha,Gamma,0.0,2633,1,11296,similarity
11,10,C1250,C1050,Gamma,Gamma,6.0,2007,1,11296,similarity
12,10,C1250,A350,Gamma,Alpha,0.9999999999999998,4410,1,11296,similarity
13,10,C1250,B550,Gamma,Beta,2.0,2263,1,11296,similarity
14,10,C1250,C1350,Gamma,Gamma,6.0,1796,1,11296,similarity
12,11,C1050,A350,Gamma,Alpha,0.9999999999999998,4008,1,11296,similarity
13,11,C1050,B550,Gamma,Beta,0.9999999999999998,1211,1,11296,similarity
14,11,C1050,C1350,Gamma,Gamma,6.0,2010,1,11296,similarity
13,12,A350,B550,Alpha,Beta,5.0,2820,1,11296,similarity
14,12,A350,C1350,Alpha,Gamma,0.9999999999999998,1762,1,11296,similarity
14,13,B550,C1350,Beta,Gamma,0.9999999999999998,748,1,11296,similarity
1,0,B550,B750,Beta,Beta,4.0,10803,1,12202,similarity
2,0,B550,C1050,Beta,Gamma,0.9999999999999998,4751,1,12202,similarity
3,0,B550,A250,Beta,Alpha,2.0,3579,1,12202,similarity
4,0,B550,C1450,Beta,Gamma,0.0,3608,1,12202,similarity
5,0,B550,C1150,Beta,Gamma,0.9999999999999998,3098,1,12202,similarity
6,0,B550,B950,Beta, Beta,0.9999999999999998,1820,1,12202,similarity
7,0,B550,B850,Beta,Beta,2.0,4249,1,12202,similarity
8,0,B550,C1350,Beta,Gamma,0.0,3780,1,12202,similarity
9,0,B550,C1250,Beta,Gamma,0.0,859,1,12202,similarity
10,0,B550,A50,Beta,Alpha,0.0,1485,1,12202,similarity
11,0,B550,A450,Beta,Alpha,6.0,3668,1,12202,similarity
12,0,B550,A350,Beta,Alpha,4.0,5272,1,12202,similarity
13,0,B550,B650,Beta,Beta,6.0,2639,1,12202,similarity
14,0,B550,A150,Beta,Alpha,2.0,2484,1,12202,similarity
2,1,B750,C1050,Beta,Gamma,4.0,4622,1,12202,similarity
3,1,B750,A250,Beta,Alpha,0.9999999999999998,3374,1,12202,similarity
4,1,B750,C1450,Beta,Gamma,0.0,2254,1,12202,similarity
5,1,B750,C1150,Beta,Gamma,0.9999999999999998,5499,1,12202,similarity
6,1,B750,B950,Beta, Beta,4.0,3107,1,12202,similarity
7,1,B750,B850,Beta,Beta,6.0,2210,1,12202,similarity
8,1,B750,C1350,Beta,Gamma,5.0,2493,1,12202,similarity
9,1,B750,C1250,Beta,Gamma,5.0,2782,1,12202,similarity
10,1,B750,A50,Beta,Alpha,0.0,2353,1,12202,similarity
11,1,B750,A450,Beta,Alpha,4.0,3039,1,12202,similarity
12,1,B750,A350,Beta,Alpha,3.0,4098,1,12202,similarity
13,1,B750,B650,Beta,Beta,6.0,2489,1,12202,similarity
14,1,B750,A150,Beta,Alpha,0.0,2387,1,12202,similarity
3,2,C1050,A250,Gamma,Alpha,0.0,1283,1,12202,similarity
4,2,C1050,C1450,Gamma,Gamma,3.0,2839,1,12202,similarity
5,2,C1050,C1150,Gamma,Gamma,6.0,2576,1,12202,similarity
6,2,C1050,B950,Gamma, Beta,6.0,1428,1,12202,similarity
7,2,C1050,B850,Gamma,Beta,6.0,865,1,12202,similarity
8,2,C1050,C1350,Gamma,Gamma,5.0,2677,1,12202,similarity
9,2,C1050,C1250,Gamma,Gamma,5.0,1569,1,12202,similarity
10,2,C1050,A50,Gamma,Alpha,0.0,2416,1,12202,similarity
11,2,C1050,A450,Gamma,Alpha,0.9999999999999998,2435,1,12202,similarity
12,2,C1050,A350,Gamma,Alpha,0.9999999999999998,1299,1,12202,similarity
13,2,C1050,B650,Gamma,Beta,0.9999999999999998,927,1,12202,similarity
14,2,C1050,A150,Gamma,Alpha,0.9999999999999998,714,1,12202,similarity
4,3,A250,C1450,Alpha,Gamma,0.9999999999999998,693,1,12202,similarity
5,3,A250,C1150,Alpha,Gamma,0.9999999999999998,512,1,12202,similarity
6,3,A250,B950,Alpha, Beta,0.0,2860,1,12202,similarity
7,3,A250,B850,Alpha,Beta,0.0,1554,1,12202,similarity
8,3,A250,C1350,Alpha,Gamma,0.0,1287,1,12202,similarity
9,3,A250,C1250,Alpha,Gamma,0.0,508,1,12202,similarity
10,3,A250,A50,Alpha,Alpha,2.0,8694,1,12202,similarity
11,3,A250,A450,Alpha,Alpha,5.0,3523,1,12202,similarity
12,3,A250,A350,Alpha,Alpha,5.0,1250,1,12202,similarity
13,3,A250,B650,Alpha,Beta,2.0,2655,1,12202,similarity
14,3,A250,A150,Alpha,Alpha,6.0,2267,1,12202,similarity
5,4,C1450,C1150,Gamma,Gamma,5.0,2491,1,12202,similarity
6,4,C1450,B950,Gamma, Beta,4.0,3553,1,12202,similarity
7,4,C1450,B850,Gamma,Beta,4.0,947,1,12202,similarity
8,4,C1450,C1350,Gamma,Gamma,6.0,2436,1,12202,similarity
9,4,C1450,C1250,Gamma,Gamma,6.0,561,1,12202,similarity
10,4,C1450,A50,Gamma,Alpha,0.0,2458,1,12202,similarity
11,4,C1450,A450,Gamma,Alpha,0.0,949,1,12202,similarity
12,4,C1450,A350,Gamma,Alpha,0.0,575,1,12202,similarity
13,4,C1450,B650,Gamma,Beta,0.0,896,1,12202,similarity
14,4,C1450,A150,Gamma,Alpha,0.0,635,1,12202,similarity
6,5,C1150,B950,Gamma, Beta,5.0,2520,1,12202,similarity
7,5,C1150,B850,Gamma,Beta,5.0,962,1,12202,similarity
8,5,C1150,C1350,Gamma,Gamma,6.0,2483,1,12202,similarity
9,5,C1150,C1250,Gamma,Gamma,6.0,606,1,12202,similarity
10,5,C1150,A50,Gamma,Alpha,0.0,2573,1,12202,similarity
11,5,C1150,A450,Gamma,Alpha,0.0,1349,1,12202,similarity
12,5,C1150,A350,Gamma,Alpha,0.0,479,1,12202,similarity
13,5,C1150,B650,Gamma,Beta,0.9999999999999998,3938,1,12202,similarity
14,5,C1150,A150,Gamma,Alpha,0.0,1869,1,12202,similarity
7,6,B950,B850, Beta,Beta,6.0,2334,1,12202,similarity
8,6,B950,C1350, Beta,Gamma,5.0,2226,1,12202,similarity
9,6,B950,C1250, Beta,Gamma,5.0,1346,1,12202,similarity
10,6,B950,A50, Beta,Alpha,0.0,2366,1,12202,similarity
11,6,B950,A450, Beta,Alpha,0.9999999999999998,3557,1,12202,similarity
12,6,B950,A350, Beta,Alpha,0.9999999999999998,2574,1,12202,similarity
13,6,B950,B650, Beta,Beta,4.0,3039,1,12202,similarity
14,6,B950,A150, Beta,Alpha,0.0,2027,1,12202,similarity
8,7,B850,C1350,Beta,Gamma,4.0,3512,1,12202,similarity
9,7,B850,C1250,Beta,Gamma,4.0,1992,1,12202,similarity
10,7,B850,A50,Beta,Alpha,0.0,3966,1,12202,similarity
11,7,B850,A450,Beta,Alpha,2.0,3067,1,12202,similarity
12,7,B850,A350,Beta,Alpha,2.0,1766,1,12202,similarity
13,7,B850,B650,Beta,Beta,4.0,3558,1,12202,similarity
14,7,B850,A150,Beta,Alpha,0.0,3589,1,12202,similarity
9,8,C1350,C1250,Gamma,Gamma,6.0,2324,1,12202,similarity
10,8,C1350,A50,Gamma,Alpha,0.0,3740,1,12202,similarity
11,8,C1350,A450,Gamma,Alpha,0.0,1558,1,12202,similarity
12,8,C1350,A350,Gamma,Alpha,0.0,471,1,12202,similarity
13,8,C1350,B650,Gamma,Beta,0.0,836,1,12202,similarity
14,8,C1350,A150,Gamma,Alpha,0.0,578,1,12202,similarity
10,9,C1250,A50,Gamma,Alpha,0.0,777,1,12202,similarity
11,9,C1250,A450,Gamma,Alpha,0.0,595,1,12202,similarity
12,9,C1250,A350,Gamma,Alpha,0.0,717,1,12202,similarity
13,9,C1250,B650,Gamma,Beta,0.0,796,1,12202,similarity
14,9,C1250,A150,Gamma,Alpha,0.0,635,1,12202,similarity
11,10,A50,A450,Alpha,Alpha,0.0,2928,1,12202,similarity
12,10,A50,A350,Alpha,Alpha,0.0,458,1,12202,similarity
13,10,A50,B650,Alpha,Beta,0.0,2254,1,12202,similarity
14,10,A50,A150,Alpha,Alpha,4.0,3324,1,12202,similarity
12,11,A450,A350,Alpha,Alpha,6.0,2022,1,12202,similarity
13,11,A450,B650,Alpha,Beta,5.0,2455,1,12202,similarity
14,11,A450,A150,Alpha,Alpha,3.0,2720,1,12202,similarity
13,12,A350,B650,Alpha,Beta,3.0,2507,1,12202,similarity
14,12,A350,A150,Alpha,Alpha,3.0,1933,1,12202,similarity
14,13,B650,A150,Beta,Alpha,2.0,2550,1,12202,similarity
1,0,C1150,C1450,Gamma,Gamma,4.0,28584,1,12218,similarity
2,0,C1150,A450,Gamma,Alpha,0.9999999999999998,3041,1,12218,similarity
3,0,C1150,C1050,Gamma,Gamma,5.0,2471,1,12218,similarity
4,0,C1150,A150,Gamma,Alpha,0.9999999999999998,2149,1,12218,similarity
5,0,C1150,C1350,Gamma,Gamma,4.0,6139,1,12218,similarity
6,0,C1150,B550,Gamma,Beta,3.0,2112,1,12218,similarity
7,0,C1150,A250,Gamma,Alpha,2.0,3107,1,12218,similarity
8,0,C1150,B950,Gamma, Beta,5.0,4139,1,12218,similarity
9,0,C1150,A350,Gamma,Alpha,2.0,2539,1,12218,similarity
10,0,C1150,B850,Gamma,Beta,4.0,2726,1,12218,similarity
11,0,C1150,B650,Gamma,Beta,4.0,1811,1,12218,similarity
12,0,C1150,C1250,Gamma,Gamma,5.0,7202,1,12218,similarity
13,0,C1150,B750,Gamma,Beta,4.0,2630,1,12218,similarity
14,0,C1150,A50,Gamma,Alpha,0.0,3366,1,12218,similarity
2,1,C1450,A450,Gamma,Alpha,2.0,3179,1,12218,similarity
3,1,C1450,C1050,Gamma,Gamma,5.0,3579,1,12218,similarity
4,1,C1450,A150,Gamma,Alpha,0.9999999999999998,4559,1,12218,similarity
5,1,C1450,C1350,Gamma,Gamma,6.0,2193,1,12218,similarity
6,1,C1450,B550,Gamma,Beta,3.0,1995,1,12218,similarity
7,1,C1450,A250,Gamma,Alpha,0.9999999999999998,2539,1,12218,similarity
8,1,C1450,B950,Gamma, Beta,4.0,2635,1,12218,similarity
9,1,C1450,A350,Gamma,Alpha,2.0,2219,1,12218,similarity
10,1,C1450,B850,Gamma,Beta,4.0,5196,1,12218,similarity
11,1,C1450,B650,Gamma,Beta,3.0,1839,1,12218,similarity
12,1,C1450,C1250,Gamma,Gamma,5.0,2539,1,12218,similarity
13,1,C1450,B750,Gamma,Beta,4.0,2190,1,12218,similarity
14,1,C1450,A50,Gamma,Alpha,0.0,4258,1,12218,similarity
3,2,A450,C1050,Alpha,Gamma,3.0,2479,1,12218,similarity
4,2,A450,A150,Alpha,Alpha,3.0,3108,1,12218,similarity
5,2,A450,C1350,Alpha,Gamma,3.0,8795,1,12218,similarity
6,2,A450,B550,Alpha,Beta,6.0,4470,1,12218,similarity
7,2,A450,A250,Alpha,Alpha,5.0,2325,1,12218,similarity
8,2,A450,B950,Alpha, Beta,3.0,2074,1,12218,similarity
9,2,A450,A350,Alpha,Alpha,6.0,3952,1,12218,similarity
10,2,A450,B850,Alpha,Beta,5.0,2434,1,12218,similarity
11,2,A450,B650,Alpha,Beta,5.0,10011,1,12218,similarity
12,2,A450,C1250,Alpha,Gamma,3.0,2443,1,12218,similarity
13,2,A450,B750,Alpha,Beta,4.0,4097,1,12218,similarity
14,2,A450,A50,Alpha,Alpha,0.0,4442,1,12218,similarity
4,3,C1050,A150,Gamma,Alpha,0.9999999999999998,2867,1,12218,similarity
5,3,C1050,C1350,Gamma,Gamma,5.0,2547,1,12218,similarity
6,3,C1050,B550,Gamma,Beta,4.0,1884,1,12218,similarity
7,3,C1050,A250,Gamma,Alpha,2.0,2649,1,12218,similarity
8,3,C1050,B950,Gamma, Beta,6.0,2187,1,12218,similarity
9,3,C1050,A350,Gamma,Alpha,2.0,7472,1,12218,similarity
10,3,C1050,B850,Gamma,Beta,5.0,4235,1,12218,similarity
11,3,C1050,B650,Gamma,Beta,4.0,2350,1,12218,similarity
12,3,C1050,C1250,Gamma,Gamma,5.0,6449,1,12218,similarity
13,3,C1050,B750,Gamma,Beta,5.0,1395,1,12218,similarity
14,3,C1050,A50,Gamma,Alpha,0.0,2470,1,12218,similarity
5,4,A150,C1350,Alpha,Gamma,0.9999999999999998,3670,1,12218,similarity
6,4,A150,B550,Alpha,Beta,2.0,2564,1,12218,similarity
7,4,A150,A250,Alpha,Alpha,5.0,3779,1,12218,similarity
8,4,A150,B950,Alpha, Beta,0.9999999999999998,4509,1,12218,similarity
9,4,A150,A350,Alpha,Alpha,3.0,2573,1,12218,similarity
10,4,A150,B850,Alpha,Beta,0.9999999999999998,3396,1,12218,similarity
11,4,A150,B650,Alpha,Beta,2.0,2307,1,12218,similarity
12,4,A150,C1250,Alpha,Gamma,0.9999999999999998,3790,1,12218,similarity
13,4,A150,B750,Alpha,Beta,2.0,4012,1,12218,similarity
14,4,A150,A50,Alpha,Alpha,3.0,2842,1,12218,similarity
6,5,C1350,B550,Gamma,Beta,3.0,2390,1,12218,similarity
7,5,C1350,A250,Gamma,Alpha,0.9999999999999998,2575,1,12218,similarity
8,5,C1350,B950,Gamma, Beta,5.0,2795,1,12218,similarity
9,5,C1350,A350,Gamma,Alpha,2.0,65539,1,12218,similarity
10,5,C1350,B850,Gamma,Beta,4.0,2733,1,12218,similarity
11,5,C1350,B650,Gamma,Beta,4.0,1274,1,12218,similarity
12,5,C1350,C1250,Gamma,Gamma,6.0,2242,1,12218,similarity
13,5,C1350,B750,Gamma,Beta,5.0,1975,1,12218,similarity
14,5,C1350,A50,Gamma,Alpha,0.0,2130,1,12218,similarity
7,6,B550,A250,Beta,Alpha,3.0,3563,1,12218,similarity
8,6,B550,B950,Beta, Beta,4.0,2747,1,12218,similarity
9,6,B550,A350,Beta,Alpha,5.0,2011,1,12218,similarity
10,6,B550,B850,Beta,Beta,5.0,1642,1,12218,similarity
11,6,B550,B650,Beta,Beta,6.0,3582,1,12218,similarity
12,6,B550,C1250,Beta,Gamma,4.0,4019,1,12218,similarity
13,6,B550,B750,Beta,Beta,5.0,2131,1,12218,similarity
14,6,B550,A50,Beta,Alpha,0.9999999999999998,2756,1,12218,similarity
8,7,A250,B950,Alpha, Beta,2.0,5835,1,12218,similarity
9,7,A250,A350,Alpha,Alpha,6.0,2692,1,12218,similarity
10,7,A250,B850,Alpha,Beta,2.0,2522,1,12218,similarity
11,7,A250,B650,Alpha,Beta,2.0,1915,1,12218,similarity
12,7,A250,C1250,Alpha,Gamma,0.9999999999999998,6451,1,12218,similarity
13,7,A250,B750,Alpha,Beta,2.0,2013,1,12218,similarity
14,7,A250,A50,Alpha,Alpha,2.0,3500,1,12218,similarity
9,8,B950,A350, Beta,Alpha,3.0,2556,1,12218,similarity
10,8,B950,B850, Beta,Beta,6.0,2628,1,12218,similarity
11,8,B950,B650, Beta,Beta,5.0,2528,1,12218,similarity
12,8,B950,C1250, Beta,Gamma,5.0,5172,1,12218,similarity
13,8,B950,B750, Beta,Beta,5.0,1336,1,12218,similarity
14,8,B950,A50, Beta,Alpha,0.0,2932,1,12218,similarity
10,9,A350,B850,Alpha,Beta,4.0,3543,1,12218,similarity
11,9,A350,B650,Alpha,Beta,5.0,3228,1,12218,similarity
12,9,A350,C1250,Alpha,Gamma,2.0,4155,1,12218,similarity
13,9,A350,B750,Alpha,Beta,3.0,3326,1,12218,similarity
14,9,A350,A50,Alpha,Alpha,0.9999999999999998,6499,1,12218,similarity
11,10,B850,B650,Beta,Beta,5.0,3651,1,12218,similarity
12,10,B850,C1250,Beta,Gamma,5.0,2418,1,12218,similarity
13,10,B850,B750,Beta,Beta,6.0,2210,1,12218,similarity
14,10,B850,A50,Beta,Alpha,0.0,3479,1,12218,similarity
12,11,B650,C1250,Beta,Gamma,4.0,5906,1,12218,similarity
13,11,B650,B750,Beta,Beta,6.0,2899,1,12218,similarity
14,11,B650,A50,Beta,Alpha,0.9999999999999998,3142,1,12218,similarity
13,12,C1250,B750,Gamma,Beta,4.0,28233,1,12218,similarity
14,12,C1250,A50,Gamma,Alpha,0.0,2183,1,12218,similarity
14,13,B750,A50,Beta,Alpha,0.9999999999999998,3411,1,12218,similarity
1,0,A350,B750,Beta,Beta,2.0,6701,1,12221,similarity
2,0,A350,A250,Alpha,Alpha,4.0,3777,1,12221,similarity
3,0,A350,A450,Alpha,Alpha,4.0,1283,1,12221,similarity
4,0,A350,B950,Alpha, Beta,2.0,2291,1,12221,similarity
5,0,A350,C1050,Alpha,Gamma,0.9999999999999998,2093,1,12221,similarity
6,0,A350,A50,Alpha,Alpha,0.0,3815,1,12221,similarity
7,0,A350,C1450,Alpha,Gamma,0.0,1882,1,12221,similarity
8,0,A350,C1150,Alpha,Gamma,0.9999999999999998,2482,1,12221,similarity
9,0,A350,B850,Alpha,Beta,0.9999999999999998,1643,1,12221,similarity
10,0,A350,C1250,Alpha,Gamma,0.9999999999999998,1255,1,12221,similarity
11,0,A350,B650,Alpha,Beta,2.0,2111,1,12221,similarity
12,0,A350,C1350,Alpha,Gamma,0.0,2165,1,12221,similarity
13,0,A350,B550,Alpha,Beta,3.0,3660,1,12221,similarity
14,0,A350,A150,Alpha,Alpha,3.0,1886,1,12221,similarity
2,1,B750,A250,Beta,Alpha,3.0,1283,1,12221,similarity
3,1,B750,A450,Beta,Alpha,3.0,934,1,12221,similarity
4,1,B750,B950,Beta, Beta,5.0,2693,1,12221,similarity
5,1,B750,C1050,Beta,Gamma,4.0,2443,1,12221,similarity
6,1,B750,A50,Beta,Alpha,0.0,2001,1,12221,similarity
7,1,B750,C1450,Beta,Gamma,0.9999999999999998,3153,1,12221,similarity
8,1,B750,C1150,Beta,Gamma,2.0,1757,1,12221,similarity
9,1,B750,B850,Beta,Beta,5.0,4127,1,12221,similarity
10,1,B750,C1250,Beta,Gamma,3.0,2727,1,12221,similarity
11,1,B750,B650,Beta,Beta,5.0,3894,1,12221,similarity
12,1,B750,C1350,Beta,Gamma,2.0,3925,1,12221,similarity
13,1,B750,B550,Beta,Beta,4.0,2146,1,12221,similarity
14,1,B750,A150,Beta,Alpha,2.0,1779,1,12221,similarity
3,2,A250,A450,Alpha,Alpha,4.0,3577,1,12221,similarity
4,2,A250,B950,Alpha, Beta,2.0,2002,1,12221,similarity
5,2,A250,C1050,Alpha,Gamma,2.0,1498,1,12221,similarity
6,2,A250,A50,Alpha,Alpha,0.9999999999999998,5723,1,12221,similarity
7,2,A250,C1450,Alpha,Gamma,0.0,2135,1,12221,similarity
8,2,A250,C1150,Alpha,Gamma,0.0,1299,1,12221,similarity
9,2,A250,B850,Alpha,Beta,0.9999999999999998,2410,1,12221,similarity
10,2,A250,C1250,Alpha,Gamma,0.0,2497,1,12221,similarity
11,2,A250,B650,Alpha,Beta,2.0,1995,1,12221,similarity
12,2,A250,C1350,Alpha,Gamma,0.9999999999999998,4194,1,12221,similarity
13,2,A250,B550,Alpha,Beta,2.0,3842,1,12221,similarity
14,2,A250,A150,Alpha,Alpha,3.0,2259,1,12221,similarity
4,3,A450,B950,Alpha, Beta,3.0,1275,1,12221,similarity
5,3,A450,C1050,Alpha,Gamma,3.0,643,1,12221,similarity
6,3,A450,A50,Alpha,Alpha,0.9999999999999998,2658,1,12221,similarity
7,3,A450,C1450,Alpha,Gamma,2.0,5477,1,12221,similarity
8,3,A450,C1150,Alpha,Gamma,2.0,1643,1,12221,similarity
9,3,A450,B850,Alpha,Beta,3.0,1859,1,12221,similarity
10,3,A450,C1250,Alpha,Gamma,2.0,1980,1,12221,similarity
11,3,A450,B650,Alpha,Beta,4.0,3124,1,12221,similarity
12,3,A450,C1350,Alpha,Gamma,0.9999999999999998,2148,1,12221,similarity
13,3,A450,B550,Alpha,Beta,5.0,3203,1,12221,similarity
14,3,A450,A150,Alpha,Alpha,2.0,2155,1,12221,similarity
5,4,B950,C1050, Beta,Gamma,5.0,2429,1,12221,similarity
6,4,B950,A50, Beta,Alpha,0.0,2305,1,12221,similarity
7,4,B950,C1450, Beta,Gamma,5.0,4938,1,12221,similarity
8,4,B950,C1150, Beta,Gamma,5.0,2569,1,12221,similarity
9,4,B950,B850, Beta,Beta,5.0,812,1,12221,similarity
10,4,B950,C1250, Beta,Gamma,5.0,1429,1,12221,similarity
11,4,B950,B650, Beta,Beta,4.0,2500,1,12221,similarity
12,4,B950,C1350, Beta,Gamma,4.0,1746,1,12221,similarity
13,4,B950,B550, Beta,Beta,3.0,2514,1,12221,similarity
14,4,B950,A150, Beta,Alpha,2.0,1731,1,12221,similarity
6,5,C1050,A50,Gamma,Alpha,0.9999999999999998,1770,1,12221,similarity
7,5,C1050,C1450,Gamma,Gamma,5.0,3596,1,12221,similarity
8,5,C1050,C1150,Gamma,Gamma,5.0,1467,1,12221,similarity
9,5,C1050,B850,Gamma,Beta,5.0,858,1,12221,similarity
10,5,C1050,C1250,Gamma,Gamma,5.0,1018,1,12221,similarity
11,5,C1050,B650,Gamma,Beta,4.0,3914,1,12221,similarity
12,5,C1050,C1350,Gamma,Gamma,4.0,2977,1,12221,similarity
13,5,C1050,B550,Gamma,Beta,4.0,627,1,12221,similarity
14,5,C1050,A150,Gamma,Alpha,0.9999999999999998,2481,1,12221,similarity
7,6,A50,C1450,Alpha,Gamma,0.0,2507,1,12221,similarity
8,6,A50,C1150,Alpha,Gamma,0.0,1213,1,12221,similarity
9,6,A50,B850,Alpha,Beta,0.0,762,1,12221,similarity
10,6,A50,C1250,Alpha,Gamma,0.0,612,1,12221,similarity
11,6,A50,B650,Alpha,Beta,0.0,1749,1,12221,similarity
12,6,A50,C1350,Alpha,Gamma,0.0,532,1,12221,similarity
13,6,A50,B550,Alpha,Beta,0.0,575,1,12221,similarity
14,6,A50,A150,Alpha,Alpha,2.0,2615,1,12221,similarity
8,7,C1450,C1150,Gamma,Gamma,4.0,3359,1,12221,similarity
9,7,C1450,B850,Gamma,Beta,3.0,3693,1,12221,similarity
10,7,C1450,C1250,Gamma,Gamma,4.0,2596,1,12221,similarity
11,7,C1450,B650,Gamma,Beta,2.0,2745,1,12221,similarity
12,7,C1450,C1350,Gamma,Gamma,4.0,2992,1,12221,similarity
13,7,C1450,B550,Gamma,Beta,2.0,2159,1,12221,similarity
14,7,C1450,A150,Gamma,Alpha,0.9999999999999998,1760,1,12221,similarity
9,8,C1150,B850,Gamma,Beta,4.0,4354,1,12221,similarity
10,8,C1150,C1250,Gamma,Gamma,5.0,3635,1,12221,similarity
11,8,C1150,B650,Gamma,Beta,4.0,1835,1,12221,similarity
12,8,C1150,C1350,Gamma,Gamma,5.0,2339,1,12221,similarity
13,8,C1150,B550,Gamma,Beta,3.0,2459,1,12221,similarity
14,8,C1150,A150,Gamma,Alpha,2.0,1515,1,12221,similarity
10,9,B850,C1250,Beta,Gamma,4.0,1643,1,12221,similarity
11,9,B850,B650,Beta,Beta,4.0,1306,1,12221,similarity
12,9,B850,C1350,Beta,Gamma,4.0,4147,1,12221,similarity
13,9,B850,B550,Beta,Beta,4.0,611,1,12221,similarity
14,9,B850,A150,Beta,Alpha,2.0,2356,1,12221,similarity
11,10,C1250,B650,Gamma,Beta,3.0,3523,1,12221,similarity
12,10,C1250,C1350,Gamma,Gamma,5.0,3378,1,12221,similarity
13,10,C1250,B550,Gamma,Beta,2.0,2139,1,12221,similarity
14,10,C1250,A150,Gamma,Alpha,0.9999999999999998,1722,1,12221,similarity
12,11,B650,C1350,Beta,Gamma,2.0,2123,1,12221,similarity
13,11,B650,B550,Beta,Beta,5.0,5106,1,12221,similarity
14,11,B650,A150,Beta,Alpha,0.9999999999999998,2371,1,12221,similarity
13,12,C1350,B550,Gamma,Beta,2.0,9555,1,12221,similarity
14,12,C1350,A150,Gamma,Alpha,0.0,3274,1,12221,similarity
14,13,B550,A150,Beta,Alpha,0.0,1562,1,12221,similarity
1,0,A350,C1050,Gamma,Gamma,0.0,8760,1,12136,similarity
2,0,A350,B950,Alpha, Beta,2.0,10794,1,12136,similarity
3,0,A350,A50,Alpha,Alpha,4.0,5391,1,12136,similarity
4,0,A350,A150,Alpha,Alpha,4.0,2433,1,12136,similarity
5,0,A350,B850,Alpha,Beta,4.0,6086,1,12136,similarity
6,0,A350,C1250,Alpha,Gamma,0.0,3124,1,12136,similarity
7,0,A350,A250,Alpha,Alpha,5.0,5446,1,12136,similarity
8,0,A350,B550,Alpha,Beta,5.0,2177,1,12136,similarity
9,0,A350,B750,Alpha,Beta,3.0,3066,1,12136,similarity
10,0,A350,C1450,Alpha,Gamma,0.0,2181,1,12136,similarity
11,0,A350,C1350,Alpha,Gamma,0.0,861,1,12136,similarity
12,0,A350,C1150,Alpha,Gamma,0.0,802,1,12136,similarity
13,0,A350,B650,Alpha,Beta,3.0,5993,1,12136,similarity
14,0,A350,A450,Alpha,Alpha,4.0,1630,1,12136,similarity
2,1,C1050,B950,Gamma, Beta,5.0,1986,1,12136,similarity
3,1,C1050,A50,Gamma,Alpha,0.0,3149,1,12136,similarity
4,1,C1050,A150,Gamma,Alpha,0.0,1172,1,12136,similarity
5,1,C1050,B850,Gamma,Beta,5.0,2582,1,12136,similarity
6,1,C1050,C1250,Gamma,Gamma,5.0,1492,1,12136,similarity
7,1,C1050,A250,Gamma,Alpha,3.0,3370,1,12136,similarity
8,1,C1050,B550,Gamma,Beta,2.0,7927,1,12136,similarity
9,1,C1050,B750,Gamma,Beta,3.0,2930,1,12136,similarity
10,1,C1050,C1450,Gamma,Gamma,4.0,1933,1,12136,similarity
11,1,C1050,C1350,Gamma,Gamma,4.0,1051,1,12136,similarity
12,1,C1050,C1150,Gamma,Gamma,5.0,1950,1,12136,similarity
13,1,C1050,B650,Gamma,Beta,3.0,3904,1,12136,similarity
14,1,C1050,A450,Gamma,Alpha,2.0,2035,1,12136,similarity
3,2,B950,A50, Beta,Alpha,0.0,2280,1,12136,similarity
4,2,B950,A150, Beta,Alpha,0.9999999999999998,3272,1,12136,similarity
5,2,B950,B850, Beta,Beta,5.0,2906,1,12136,similarity
6,2,B950,C1250, Beta,Gamma,5.0,1859,1,12136,similarity
7,2,B950,A250, Beta,Alpha,2.0,2714,1,12136,similarity
8,2,B950,B550, Beta,Beta,3.0,6499,1,12136,similarity
9,2,B950,B750, Beta,Beta,4.0,1754,1,12136,similarity
10,2,B950,C1450, Beta,Gamma,4.0,1923,1,12136,similarity
11,2,B950,C1350, Beta,Gamma,4.0,1346,1,12136,similarity
12,2,B950,C1150, Beta,Gamma,5.0,1953,1,12136,similarity
13,2,B950,B650, Beta,Beta,5.0,1159,1,12136,similarity
14,2,B950,A450, Beta,Alpha,4.0,3152,1,12136,similarity
4,3,A50,A150,Alpha,Alpha,4.0,2801,1,12136,similarity
5,3,A50,B850,Alpha,Beta,0.9999999999999998,2226,1,12136,similarity
6,3,A50,C1250,Alpha,Gamma,0.0,2299,1,12136,similarity
7,3,A50,A250,Alpha,Alpha,0.9999999999999998,5565,1,12136,similarity
8,3,A50,B550,Alpha,Beta,0.0,1830,1,12136,similarity
9,3,A50,B750,Alpha,Beta,0.0,714,1,12136,similarity
10,3,A50,C1450,Alpha,Gamma,0.0,1899,1,12136,similarity
11,3,A50,C1350,Alpha,Gamma,0.0,1097,1,12136,similarity
12,3,A50,C1150,Alpha,Gamma,0.0,770,1,12136,similarity
13,3,A50,B650,Alpha,Beta,0.9999999999999998,3881,1,12136,similarity
14,3,A50,A450,Alpha,Alpha,2.0,1994,1,12136,similarity
5,4,A150,B850,Alpha,Beta,2.0,2095,1,12136,similarity
6,4,A150,C1250,Alpha,Gamma,0.9999999999999998,2001,1,12136,similarity
7,4,A150,A250,Alpha,Alpha,4.0,4977,1,12136,similarity
8,4,A150,B550,Alpha,Beta,3.0,1662,1,12136,similarity
9,4,A150,B750,Alpha,Beta,2.0,2859,1,12136,similarity
10,4,A150,C1450,Alpha,Gamma,0.0,1749,1,12136,similarity
11,4,A150,C1350,Alpha,Gamma,0.9999999999999998,2249,1,12136,similarity
12,4,A150,C1150,Alpha,Gamma,0.9999999999999998,2298,1,12136,similarity
13,4,A150,B650,Alpha,Beta,0.9999999999999998,2843,1,12136,similarity
14,4,A150,A450,Alpha,Alpha,2.0,1346,1,12136,similarity
6,5,B850,C1250,Beta,Gamma,4.0,1989,1,12136,similarity
7,5,B850,A250,Beta,Alpha,2.0,3158,1,12136,similarity
8,5,B850,B550,Beta,Beta,4.0,4937,1,12136,similarity
9,5,B850,B750,Beta,Beta,5.0,1591,1,12136,similarity
10,5,B850,C1450,Beta,Gamma,4.0,5216,1,12136,similarity
11,5,B850,C1350,Beta,Gamma,4.0,1065,1,12136,similarity
12,5,B850,C1150,Beta,Gamma,4.0,1763,1,12136,similarity
13,5,B850,B650,Beta,Beta,4.0,1603,1,12136,similarity
14,5,B850,A450,Beta,Alpha,3.0,1547,1,12136,similarity
7,6,C1250,A250,Gamma,Alpha,0.9999999999999998,2211,1,12136,similarity
8,6,C1250,B550,Gamma,Beta,0.9999999999999998,1561,1,12136,similarity
9,6,C1250,B750,Gamma,Beta,2.0,1386,1,12136,similarity
10,6,C1250,C1450,Gamma,Gamma,5.0,3380,1,12136,similarity
11,6,C1250,C1350,Gamma,Gamma,5.0,1131,1,12136,similarity
12,6,C1250,C1150,Gamma,Gamma,5.0,1221,1,12136,similarity
13,6,C1250,B650,Gamma,Beta,4.0,2019,1,12136,similarity
14,6,C1250,A450,Gamma,Alpha,4.0,1082,1,12136,similarity
8,7,A250,B550,Alpha,Beta,3.0,3715,1,12136,similarity
9,7,A250,B750,Alpha,Beta,2.0,2377,1,12136,similarity
10,7,A250,C1450,Alpha,Gamma,0.0,3707,1,12136,similarity
11,7,A250,C1350,Alpha,Gamma,0.0,694,1,12136,similarity
12,7,A250,C1150,Alpha,Gamma,0.0,2179,1,12136,similarity
13,7,A250,B650,Alpha,Beta,2.0,1921,1,12136,similarity
14,7,A250,A450,Alpha,Alpha,3.0,1687,1,12136,similarity
9,8,B550,B750,Beta,Beta,4.0,6417,1,12136,similarity
10,8,B550,C1450,Beta,Gamma,0.9999999999999998,5273,1,12136,similarity
11,8,B550,C1350,Beta,Gamma,0.9999999999999998,2951,1,12136,similarity
